time,gFx,gFy,gFz,ax,ay,az,wx,wy,wz
2022-02-09 17:34:06.7010,0.196,-0.302,-0.975,0.19,0.1,0.27,-0.35,-0.34,0.17
2022-02-09 17:34:06.7100,0.17,-0.272,-0.955,0.33,-0.24,0.32,-0.21,-0.23,0.13
2022-02-09 17:34:06.7200,0.125,-0.255,-0.912,0.74,-0.41,-0.07,-0.21,-0.23,0.13
2022-02-09 17:34:06.7310,0.1,-0.24,-0.889,1.04,-0.55,-0.4,-0.07,0.02,-0.02
2022-02-09 17:34:06.7410,0.11,-0.233,-0.91,1.04,-0.67,-0.29,-0.03,0.03,-0.09
2022-02-09 17:34:06.7510,0.15,-0.253,-0.951,0.7,-0.51,0.09,0.02,-0.07,-0.13
2022-02-09 17:34:06.7610,0.19,-0.28,-0.98,0.28,-0.26,0.43,0.06,-0.17,-0.13
2022-02-09 17:34:06.7710,0.206,-0.305,-0.953,0.03,0.01,0.34,0.06,-0.14,-0.09
2022-02-09 17:34:06.7810,0.202,-0.298,-0.9,0.05,0.03,-0.22,-0.01,-0.06,-0.03
2022-02-09 17:34:06.7910,0.199,-0.274,-0.892,0.07,-0.2,-0.4,-0.08,-0.01,-0.0
2022-02-09 17:34:06.8020,0.193,-0.27,-0.908,0.13,-0.28,-0.3,-0.1,0.04,-0.0
2022-02-09 17:34:06.8120,0.188,-0.264,-0.94,0.18,-0.31,-0.01,-0.06,0.08,-0.01
2022-02-09 17:34:06.8210,0.178,-0.257,-0.975,0.28,-0.38,0.34,0.04,0.1,-0.03
2022-02-09 17:34:06.8310,0.183,-0.25,-0.998,0.29,-0.44,0.6,0.18,0.09,-0.06
2022-02-09 17:34:06.8410,0.198,-0.245,-1.006,0.17,-0.53,0.72,0.3,0.02,-0.09
2022-02-09 17:34:06.8520,0.223,-0.258,-1.01,-0.04,-0.48,0.76,0.37,-0.13,-0.1
2022-02-09 17:34:06.8620,0.253,-0.285,-1.017,-0.36,-0.26,0.85,0.38,-0.25,-0.08
2022-02-09 17:34:06.8730,0.259,-0.298,-1.006,-0.52,-0.12,0.8,0.33,-0.37,-0.02
2022-02-09 17:34:06.8820,0.243,-0.304,-0.97,-0.42,-0.08,0.51,0.24,-0.44,0.03
2022-02-09 17:34:06.8920,0.228,-0.312,-0.929,-0.31,-0.04,0.09,0.09,-0.49,0.08
2022-02-09 17:34:06.9020,0.212,-0.324,-0.903,-0.21,0.07,-0.22,-0.07,-0.49,0.1
2022-02-09 17:34:06.9120,0.198,-0.317,-0.905,-0.1,0.07,-0.28,-0.21,-0.46,0.12
2022-02-09 17:34:06.9220,0.18,-0.293,-0.911,0.01,-0.13,-0.2,-0.3,-0.36,0.13
2022-02-09 17:34:06.9320,0.165,-0.283,-0.901,0.14,-0.25,-0.3,-0.32,-0.21,0.11
2022-02-09 17:34:06.9420,0.162,-0.289,-0.903,0.18,-0.2,-0.34,-0.28,-0.06,0.11
2022-02-09 17:34:06.9520,0.17,-0.298,-0.928,0.11,-0.09,-0.16,-0.2,0.02,0.14
2022-02-09 17:34:06.9620,0.189,-0.309,-0.966,-0.04,0.03,0.19,-0.1,0.03,0.18
2022-02-09 17:34:06.9730,0.213,-0.31,-0.998,-0.3,0.09,0.53,-0.02,-0.03,0.23
2022-02-09 17:34:06.9830,0.216,-0.293,-1.02,-0.39,-0.03,0.77,0.02,-0.14,0.27
2022-02-09 17:34:06.9930,0.198,-0.265,-1.016,-0.29,-0.31,0.81,0.02,-0.24,0.25
2022-02-09 17:34:07.0030,0.161,-0.251,-0.97,0.01,-0.5,0.46,-0.04,-0.26,0.2
2022-02-09 17:34:07.0130,0.135,-0.251,-0.92,0.29,-0.52,-0.08,-0.13,-0.23,0.16
2022-02-09 17:34:07.0230,0.126,-0.256,-0.883,0.38,-0.48,-0.46,-0.22,-0.14,0.16
2022-02-09 17:34:07.0330,0.13,-0.269,-0.858,0.35,-0.34,-0.78,-0.29,-0.0,0.2
2022-02-09 17:34:07.0430,0.145,-0.275,-0.863,0.23,-0.24,-0.8,-0.31,0.17,0.25
2022-02-09 17:34:07.0530,0.167,-0.279,-0.898,0.02,-0.18,-0.54,-0.25,0.28,0.29
2022-02-09 17:34:07.0640,0.171,-0.275,-0.955,-0.06,-0.16,-0.02,-0.15,0.25,0.3
2022-02-09 17:34:07.0730,0.156,-0.252,-1.015,0.06,-0.34,0.57,-0.04,0.08,0.25
2022-02-09 17:34:07.0830,0.135,-0.222,-1.055,0.26,-0.62,1.06,0.02,-0.12,0.16
2022-02-09 17:34:07.0930,0.104,-0.205,-1.029,0.51,-0.86,0.97,-0.02,-0.27,0.05
2022-02-09 17:34:07.1030,0.076,-0.208,-0.967,0.84,-0.85,0.39,-0.13,-0.32,-0.0
2022-02-09 17:34:07.1140,0.118,-0.224,-0.935,0.55,-0.73,-0.04,-0.25,-0.36,0.01
2022-02-09 17:34:07.1240,0.145,-0.262,-0.928,0.13,-0.37,-0.15,-0.33,-0.42,0.05
2022-02-09 17:34:07.1340,0.131,-0.287,-0.915,0.15,-0.03,-0.26,-0.39,-0.41,0.11
2022-02-09 17:34:07.1440,0.13,-0.284,-0.921,0.22,0.03,-0.35,-0.38,-0.39,0.19
2022-02-09 17:34:07.1540,0.137,-0.255,-0.96,0.04,-0.16,0.04,-0.31,-0.34,0.2
2022-02-09 17:34:07.1640,0.099,-0.224,-0.962,0.29,-0.46,0.11,-0.26,-0.29,0.16
2022-02-09 17:34:07.1740,0.082,-0.213,-0.96,0.56,-0.6,0.1,-0.26,-0.22,0.14
2022-02-09 17:34:07.1840,0.103,-0.227,-0.935,0.36,-0.51,-0.11,-0.28,-0.15,0.15
2022-02-09 17:34:07.1940,0.112,-0.268,-0.968,0.23,-0.15,-0.12,-0.15,-0.17,0.21
2022-02-09 17:34:07.2040,0.089,-0.294,-1.089,0.27,0.26,1.17,0.01,-0.36,0.23
2022-02-09 17:34:07.2150,0.063,-0.232,-1.052,0.64,-0.18,1.12,0.08,-0.41,0.2
2022-02-09 17:34:07.2240,0.048,-0.197,-0.991,0.63,-0.71,0.44,0.09,-0.37,0.15
2022-02-09 17:34:07.2340,0.012,-0.208,-0.972,0.97,-0.65,0.2,0.11,-0.31,0.12
2022-02-09 17:34:07.2450,-0.006,-0.206,-0.95,1.14,-0.64,-0.01,0.14,-0.21,0.08
2022-02-09 17:34:07.2550,-0.007,-0.199,-0.943,1.18,-0.73,-0.13,0.18,-0.09,0.06
2022-02-09 17:34:07.2650,0.001,-0.2,-0.949,1.11,-0.76,-0.08,0.24,0.01,0.04
2022-02-09 17:34:07.2750,0.012,-0.214,-0.961,1.0,-0.67,0.04,0.32,0.1,0.05
2022-02-09 17:34:07.2850,0.013,-0.223,-0.96,0.96,-0.58,0.09,0.38,0.19,0.04
2022-02-09 17:34:07.2950,0.004,-0.223,-0.93,1.06,-0.62,-0.12,0.36,0.25,0.03
2022-02-09 17:34:07.3050,0.013,-0.246,-0.901,1.04,-0.48,-0.44,0.26,0.23,0.03
2022-02-09 17:34:07.3150,0.017,-0.256,-0.898,0.99,-0.34,-0.52,0.16,0.16,0.03
2022-02-09 17:34:07.3250,0.013,-0.251,-0.915,1.04,-0.4,-0.41,0.13,0.09,0.02
2022-02-09 17:34:07.3350,0.023,-0.247,-0.941,0.97,-0.45,-0.11,0.13,0.03,0.02
2022-02-09 17:34:07.3460,0.001,-0.243,-0.925,1.08,-0.51,-0.15,0.09,0.04,0.02
2022-02-09 17:34:07.3550,-0.027,-0.241,-0.884,1.4,-0.54,-0.54,0.06,0.18,0.01
2022-02-09 17:34:07.3650,-0.045,-0.231,-0.879,1.6,-0.6,-0.7,0.07,0.31,-0.03
2022-02-09 17:34:07.3760,-0.055,-0.21,-0.895,1.77,-0.82,-0.55,0.12,0.4,-0.09
2022-02-09 17:34:07.3860,-0.036,-0.219,-0.908,1.71,-0.83,-0.4,0.12,0.4,-0.09
2022-02-09 17:34:07.3960,0.014,-0.248,-0.92,1.31,-0.57,-0.27,0.13,0.5,-0.08
2022-02-09 17:34:07.4060,0.042,-0.246,-0.916,0.99,-0.52,-0.23,0.03,0.49,-0.05
2022-02-09 17:34:07.4160,0.061,-0.266,-0.905,0.86,-0.43,-0.38,-0.06,0.49,-0.01
2022-02-09 17:34:07.4260,0.055,-0.274,-0.931,0.88,-0.23,-0.2,-0.13,0.43,0.0
2022-02-09 17:34:07.4360,0.045,-0.258,-0.955,1.05,-0.38,0.08,-0.21,0.34,0.0
2022-02-09 17:34:07.4460,0.044,-0.259,-0.959,1.08,-0.38,0.16,-0.28,0.3,-0.01
2022-02-09 17:34:07.4560,0.036,-0.272,-0.976,1.2,-0.27,0.24,-0.26,0.27,0.0
2022-02-09 17:34:07.4660,0.042,-0.275,-1.009,1.18,-0.15,0.61,-0.19,0.23,0.01
2022-02-09 17:34:07.4760,0.024,-0.249,-0.983,1.3,-0.35,0.49,-0.11,0.26,-0.02
2022-02-09 17:34:07.4870,-0.002,-0.242,-0.945,1.6,-0.46,0.1,-0.07,0.29,-0.07
2022-02-09 17:34:07.4960,-0.019,-0.242,-0.908,1.81,-0.46,-0.24,-0.08,0.34,-0.11
2022-02-09 17:34:07.5070,-0.017,-0.255,-0.874,1.91,-0.37,-0.63,-0.05,0.42,-0.09
2022-02-09 17:34:07.5170,0.019,-0.266,-0.893,1.64,-0.21,-0.56,0.02,0.41,-0.04
2022-02-09 17:34:07.5270,0.048,-0.249,-0.908,1.37,-0.31,-0.33,0.06,0.36,0.03
2022-02-09 17:34:07.5370,0.034,-0.247,-0.876,1.37,-0.46,-0.52,0.07,0.44,0.02
2022-02-09 17:34:07.5470,0.017,-0.282,-0.822,1.72,-0.13,-1.02,0.04,0.56,0.04
2022-02-09 17:34:07.5570,0.058,-0.294,-0.796,1.42,0.02,-1.38,-0.01,0.64,0.07
2022-02-09 17:34:07.5670,0.063,-0.31,-0.831,1.3,0.16,-1.17,-0.07,0.61,0.08
2022-02-09 17:34:07.5770,0.047,-0.315,-0.885,1.53,0.27,-0.62,-0.15,0.53,0.03
2022-02-09 17:34:07.5870,0.051,-0.3,-0.922,1.57,0.19,-0.21,-0.22,0.42,-0.04
2022-02-09 17:34:07.5970,0.059,-0.274,-0.954,1.54,-0.05,0.1,-0.24,0.33,-0.12
2022-02-09 17:34:07.6070,0.068,-0.273,-0.995,1.49,-0.11,0.48,-0.23,0.18,-0.19
2022-02-09 17:34:07.6170,0.087,-0.288,-1.022,1.35,0.04,0.81,-0.21,0.01,-0.23
2022-02-09 17:34:07.6280,0.103,-0.293,-1.012,1.18,0.16,0.81,-0.2,-0.17,-0.25
2022-02-09 17:34:07.6380,0.1,-0.286,-0.949,1.13,0.13,0.34,-0.22,-0.23,-0.28
2022-02-09 17:34:07.6480,0.102,-0.302,-0.858,1.17,0.22,-0.61,-0.24,-0.2,-0.26
2022-02-09 17:34:07.6580,0.158,-0.359,-0.824,0.75,0.72,-1.08,-0.3,-0.16,-0.15
2022-02-09 17:34:07.6680,0.202,-0.4,-0.825,0.17,1.26,-1.18,-0.39,-0.15,-0.02
2022-02-09 17:34:07.6780,0.199,-0.392,-0.85,0.13,1.32,-0.96,-0.48,-0.17,0.08
2022-02-09 17:34:07.6880,0.199,-0.357,-0.88,0.11,1.09,-0.71,-0.53,-0.25,0.13
2022-02-09 17:34:07.6980,0.16,-0.287,-0.918,0.31,0.53,-0.33,-0.54,-0.3,0.07
2022-02-09 17:34:07.7080,0.083,-0.221,-0.903,1.07,-0.14,-0.36,-0.49,-0.23,-0.02
2022-02-09 17:34:07.7180,0.09,-0.202,-0.876,1.17,-0.38,-0.67,-0.36,-0.09,-0.06
2022-02-09 17:34:07.7280,0.099,-0.199,-0.869,1.01,-0.38,-0.79,-0.19,0.03,-0.09
2022-02-09 17:34:07.7380,0.111,-0.204,-0.838,0.99,-0.37,-0.98,-0.07,0.17,-0.05
2022-02-09 17:34:07.7480,0.201,-0.261,-0.765,0.29,0.06,-1.65,-0.16,0.22,0.04
2022-02-09 17:34:07.7580,0.258,-0.326,-0.724,-0.46,0.76,-2.16,-0.4,0.41,0.13
2022-02-09 17:34:07.7690,0.252,-0.356,-0.74,-0.42,1.18,-2.2,-0.59,0.69,0.26
2022-02-09 17:34:07.7790,0.244,-0.342,-0.86,-0.33,1.23,-1.25,-0.64,0.83,0.33
2022-02-09 17:34:07.7890,0.197,-0.277,-0.994,0.13,0.74,0.17,-0.54,0.92,0.27
2022-02-09 17:34:07.7990,0.164,-0.208,-1.05,0.61,0.05,0.92,-0.4,1.01,0.12
2022-02-09 17:34:07.8100,0.143,-0.185,-1.059,0.89,-0.26,1.09,-0.29,1.04,-0.08
2022-02-09 17:34:07.8190,0.113,-0.193,-1.042,1.29,-0.19,1.02,-0.23,1.08,-0.25
2022-02-09 17:34:07.8290,0.12,-0.205,-0.991,1.44,-0.05,0.6,-0.15,1.23,-0.37
2022-02-09 17:34:07.8390,0.165,-0.23,-0.943,1.22,0.18,0.13,-0.15,1.4,-0.4
2022-02-09 17:34:07.8500,0.25,-0.261,-0.938,0.57,0.52,-0.04,-0.23,1.44,-0.37
2022-02-09 17:34:07.8590,0.303,-0.274,-0.975,0.09,0.72,0.35,-0.35,1.43,-0.28
2022-02-09 17:34:07.8690,0.357,-0.283,-0.97,-0.25,0.86,0.42,-0.49,1.39,-0.16
2022-02-09 17:34:07.8800,0.384,-0.244,-0.99,-0.55,0.71,0.55,-0.65,1.27,-0.17
2022-02-09 17:34:07.8890,0.338,-0.152,-1.017,-0.1,-0.08,0.9,-0.79,1.19,-0.27
2022-02-09 17:34:07.9000,0.298,-0.1,-1.011,0.47,-0.66,0.92,-0.87,1.19,-0.37
2022-02-09 17:34:07.9100,0.293,-0.098,-1.006,0.72,-0.66,0.88,-0.86,1.19,-0.43
2022-02-09 17:34:07.9200,0.32,-0.098,-0.985,0.66,-0.57,0.79,-0.82,1.21,-0.44
2022-02-09 17:34:07.9300,0.414,-0.133,-0.986,0.04,-0.26,0.62,-0.85,1.04,-0.32
2022-02-09 17:34:07.9400,0.513,-0.173,-1.074,-0.97,0.32,1.44,-0.97,0.72,-0.16
2022-02-09 17:34:07.9500,0.533,-0.144,-1.122,-1.25,0.28,2.02,-1.07,0.42,-0.02
2022-02-09 17:34:07.9600,0.535,-0.1,-1.165,-1.26,-0.07,2.43,-1.15,0.13,0.1
2022-02-09 17:34:07.9700,0.511,-0.063,-1.207,-1.08,-0.35,2.86,-1.13,-0.06,0.19
2022-02-09 17:34:07.9800,0.48,-0.048,-1.221,-0.77,-0.48,3.07,-1.03,-0.1,0.27
2022-02-09 17:34:07.9910,0.457,-0.047,-1.222,-0.54,-0.4,3.05,-0.88,-0.05,0.35
2022-02-09 17:34:08.0000,0.447,-0.031,-1.262,-0.41,-0.48,3.29,-0.7,-0.1,0.41
2022-02-09 17:34:08.0100,0.452,-0.02,-1.35,-0.43,-0.54,4.1,-0.51,-0.28,0.45
2022-02-09 17:34:08.0210,0.461,0.014,-1.395,-0.58,-0.77,4.68,-0.35,-0.51,0.43
2022-02-09 17:34:08.0310,0.436,0.055,-1.375,-0.48,-1.19,4.64,-0.26,-0.69,0.36
2022-02-09 17:34:08.0400,0.401,0.049,-1.257,-0.15,-1.26,3.67,-0.23,-0.75,0.33
2022-02-09 17:34:08.0510,0.418,0.022,-1.166,-0.26,-0.97,2.51,-0.16,-0.78,0.33
2022-02-09 17:34:08.0610,0.424,0.001,-1.132,-0.5,-0.8,2.19,-0.13,-0.82,0.31
2022-02-09 17:34:08.0710,0.437,-0.05,-1.006,-0.58,-0.35,1.11,-0.16,-0.65,0.41
2022-02-09 17:34:08.0810,0.479,-0.08,-0.945,-1.07,0.05,0.17,-0.12,-0.5,0.59
2022-02-09 17:34:08.0910,0.488,-0.067,-0.962,-1.3,-0.01,0.27,-0.02,-0.41,0.74
2022-02-09 17:34:08.1010,0.464,-0.055,-0.961,-1.18,-0.19,0.28,0.07,-0.38,0.85
2022-02-09 17:34:08.1110,0.444,-0.039,-0.944,-0.97,-0.32,0.18,0.1,-0.25,0.92
2022-02-09 17:34:08.1210,0.426,-0.004,-0.864,-0.86,-0.7,-0.46,0.1,-0.03,0.93
2022-02-09 17:34:08.1320,0.377,0.03,-0.8,-0.5,-1.04,-1.26,0.16,0.15,0.78
2022-02-09 17:34:08.1410,0.306,0.091,-0.852,0.26,-1.66,-1.03,0.23,0.1,0.55
2022-02-09 17:34:08.1520,0.297,0.119,-0.956,0.53,-2.06,-0.06,0.29,-0.14,0.38
2022-02-09 17:34:08.1620,0.413,0.101,-1.061,-0.32,-2.12,1.08,0.47,-0.23,0.36
2022-02-09 17:34:08.1720,0.46,-0.023,-0.964,-1.22,-1.15,0.75,0.63,0.05,0.44
2022-02-09 17:34:08.1820,0.414,-0.089,-0.754,-0.81,-0.28,-1.28,0.64,0.6,0.5
2022-02-09 17:34:08.1920,0.378,-0.074,-0.635,-0.43,-0.42,-2.78,0.57,1.01,0.43
2022-02-09 17:34:08.2020,0.344,-0.073,-0.705,0.06,-0.55,-2.46,0.42,1.06,0.32
2022-02-09 17:34:08.2120,0.337,-0.082,-0.795,0.28,-0.55,-1.39,0.23,0.92,0.21
2022-02-09 17:34:08.2220,0.384,-0.111,-0.831,0.02,-0.32,-0.93,0.1,0.71,0.18
2022-02-09 17:34:08.2320,0.427,-0.135,-0.852,-0.39,-0.07,-0.66,0.03,0.48,0.2
2022-02-09 17:34:08.2420,0.459,-0.155,-0.855,-0.67,0.09,-0.55,-0.04,0.28,0.28
2022-02-09 17:34:08.2520,0.496,-0.188,-0.797,-1.0,0.4,-0.95,-0.1,0.19,0.41
2022-02-09 17:34:08.2620,0.489,-0.19,-0.755,-1.08,0.53,-1.49,-0.18,0.09,0.5
2022-02-09 17:34:08.2720,0.455,-0.169,-0.725,-0.75,0.32,-1.73,-0.26,0.05,0.55
2022-02-09 17:34:08.2830,0.422,-0.16,-0.682,-0.43,0.21,-2.17,-0.31,0.11,0.56
2022-02-09 17:34:08.2930,0.385,-0.142,-0.647,-0.08,0.09,-2.52,-0.28,0.27,0.52
2022-02-09 17:34:08.3030,0.351,-0.105,-0.623,0.29,-0.23,-2.78,-0.2,0.5,0.4
2022-02-09 17:34:08.3130,0.317,-0.049,-0.6,0.66,-0.73,-2.97,-0.1,0.75,0.2
2022-02-09 17:34:08.3230,0.289,-0.017,-0.581,1.05,-1.17,-3.17,-0.05,0.91,-0.0
2022-02-09 17:34:08.3330,0.305,-0.019,-0.585,1.04,-1.17,-3.13,-0.03,0.96,-0.18
2022-02-09 17:34:08.3430,0.312,-0.015,-0.55,1.01,-1.2,-3.27,0.04,1.09,-0.33
2022-02-09 17:34:08.3530,0.284,-0.028,-0.472,1.3,-1.1,-3.94,0.13,1.26,-0.48
2022-02-09 17:34:08.3630,0.236,-0.032,-0.344,1.87,-1.0,-4.95,0.2,1.58,-0.62
2022-02-09 17:34:08.3730,0.218,-0.024,-0.137,2.29,-1.07,-6.76,0.35,2.24,-0.72
2022-02-09 17:34:08.3830,0.171,-0.002,0.075,2.78,-1.19,-8.79,0.62,3.17,-0.85
2022-02-09 17:34:08.3930,0.085,0.081,0.243,3.91,-1.87,-10.39,0.95,4.3,-1.07
2022-02-09 17:34:08.4030,0.035,0.193,0.358,4.88,-2.97,-11.43,1.3,5.48,-1.41
2022-02-09 17:34:08.4140,0.015,0.3,0.418,5.56,-4.05,-11.79,1.6,6.54,-1.93
2022-02-09 17:34:08.4240,-0.029,0.414,0.501,6.48,-5.19,-12.08,1.72,7.48,-2.56
2022-02-09 17:34:08.4340,-0.004,0.468,0.571,7.08,-5.85,-12.37,1.72,8.22,-3.16
2022-02-09 17:34:08.4440,0.118,0.48,0.582,6.63,-5.9,-11.99,1.7,8.75,-3.67
2022-02-09 17:34:08.4540,0.266,0.502,0.543,5.77,-5.89,-11.04,1.63,8.98,-4.07
2022-02-09 17:34:08.4640,0.395,0.56,0.529,4.91,-6.07,-9.88,1.45,9.06,-4.42
2022-02-09 17:34:08.4750,0.48,0.575,0.398,4.44,-6.18,-8.55,1.38,8.66,-4.68
2022-02-09 17:34:08.4840,0.542,0.57,0.169,4.02,-5.55,-5.16,1.32,8.18,-4.98
2022-02-09 17:34:08.4940,0.492,0.687,0.176,4.51,-6.07,-4.11,1.22,7.62,-5.34
2022-02-09 17:34:08.5040,0.496,0.752,0.119,4.88,-6.47,-3.09,1.19,7.06,-5.66
2022-02-09 17:34:08.5150,0.56,0.768,0.042,4.27,-6.07,-1.58,1.25,6.59,-5.94
2022-02-09 17:34:08.5250,0.555,0.821,0.031,4.12,-5.98,-0.66,1.39,6.34,-6.15
2022-02-09 17:34:08.5340,0.591,0.843,0.076,3.86,-5.71,-0.47,1.49,6.09,-6.27
2022-02-09 17:34:08.5440,0.692,0.877,0.075,2.7,-5.31,-0.08,1.5,5.77,-6.35
2022-02-09 17:34:08.5550,0.791,0.957,0.099,1.52,-5.46,0.31,1.37,5.41,-6.39
2022-02-09 17:34:08.5650,0.929,1.022,0.069,-0.14,-5.53,0.78,1.11,4.99,-6.46
2022-02-09 17:34:08.5750,1.054,1.121,-0.017,-1.76,-5.83,1.88,0.9,4.45,-6.55
2022-02-09 17:34:08.5850,1.228,1.206,-0.169,-3.74,-6.22,3.57,0.89,3.68,-6.52
2022-02-09 17:34:08.5960,1.434,1.278,-0.309,-6.23,-6.35,5.26,1.0,2.77,-6.51
2022-02-09 17:34:08.6050,1.608,1.356,-0.331,-8.47,-6.74,6.02,1.12,2.0,-6.46
2022-02-09 17:34:08.6150,1.798,1.315,-0.208,-10.79,-6.16,5.13,1.09,1.23,-6.26
2022-02-09 17:34:08.6250,1.978,1.233,-0.045,-13.09,-4.99,3.58,0.92,0.37,-5.8
2022-02-09 17:34:08.6350,2.089,1.079,0.119,-14.86,-3.34,1.9,0.62,-0.32,-5.16
2022-02-09 17:34:08.6460,2.108,0.918,0.246,-15.64,-1.34,0.47,0.26,-0.91,-4.5
2022-02-09 17:34:08.6560,2.074,0.838,0.331,-15.75,-0.16,-0.58,-0.03,-1.49,-3.95
2022-02-09 17:34:08.6660,2.009,0.796,0.283,-15.5,0.53,-0.56,0.01,-2.3,-3.71
2022-02-09 17:34:08.6760,1.919,0.79,0.13,-14.81,0.77,0.7,0.58,-3.87,-3.83
2022-02-09 17:34:08.6860,1.985,0.685,-0.03,-15.31,1.64,2.13,1.5,-5.77,-3.85
2022-02-09 17:34:08.6960,2.033,0.493,0.088,-16.25,3.56,1.58,1.73,-5.57,-2.81
2022-02-09 17:34:08.7060,1.962,0.333,0.408,-16.04,5.49,-1.7,1.87,-4.26,-0.93
Time,1.619,0.58,0.851,-8.09,-1.72,-11.25,2.11,-2.1,0.39
2022-02-09 17:34:08.7900,1.051,1.238,1.343,-0.06,-5.22,-6.21,0.77,0.61,0.49
2022-02-09 17:34:08.7900,0.581,1.428,1.218,-0.06,-5.22,-6.21,0.77,0.61,0.49
2022-02-09 17:34:08.7900,0.365,1.467,0.539,-0.06,-5.22,-6.21,0.77,0.61,0.49
2022-02-09 17:34:08.7900,0.469,1.544,0.015,-0.06,-5.22,-6.21,0.77,0.61,0.49
2022-02-09 17:34:08.7900,0.711,1.649,-0.33,-0.06,-5.22,-6.21,0.77,0.61,0.49
Time,0.857,1.687,-0.568,-0.06,-5.22,-6.21,0.77,0.61,0.49
2022-02-09 17:34:08.7960,0.913,1.631,-0.686,-0.06,-5.22,-6.21,0.91,-0.15,0.52
2022-02-09 17:34:08.7910,0.923,1.57,-0.489,-0.06,-5.22,-6.21,0.65,-0.88,0.57
2022-02-09 17:34:08.8080,0.88,1.462,0.123,-0.06,-5.22,-6.21,0.0,-0.97,0.58
2022-02-09 17:34:08.8200,0.707,1.4,0.359,-4.27,-7.62,5.78,-0.1,-0.57,0.48
2022-02-09 17:34:08.8290,0.573,1.32,0.043,-1.7,-4.32,-0.95,0.22,-0.22,0.46
2022-02-09 17:34:08.8370,0.52,1.224,-0.221,-1.03,-3.35,2.17,0.53,-0.01,0.42
2022-02-09 17:34:08.8470,0.476,1.142,-0.27,-0.54,-2.55,3.0,0.74,0.24,0.3
2022-02-09 17:34:08.8570,0.483,1.115,-0.239,-0.44,-2.1,2.72,0.94,0.59,0.17
2022-02-09 17:34:08.8670,0.488,1.116,-0.225,-0.59,-2.17,2.45,1.09,0.88,0.07
2022-02-09 17:34:08.8770,0.423,1.027,-0.256,-0.06,-1.55,2.61,1.2,1.06,-0.0
2022-02-09 17:34:08.8870,0.399,0.921,-0.228,0.34,-0.41,2.54,1.21,1.26,-0.06
2022-02-09 17:34:08.8970,0.384,0.9,-0.121,0.41,0.02,1.51,1.14,1.47,-0.17
2022-02-09 17:34:08.9020,0.378,0.933,-0.079,0.53,-0.47,1.0,1.04,1.56,-0.21
2022-02-09 17:34:08.9020,0.373,0.951,-0.108,0.53,-0.47,1.0,0.94,1.49,-0.19
2022-02-09 17:34:08.9220,0.348,0.906,-0.108,0.53,-0.47,1.0,0.85,1.35,-0.11
2022-02-09 17:34:08.9430,0.314,0.814,-0.121,0.53,-0.47,1.0,0.77,1.1,-0.12
2022-02-09 17:34:08.9440,0.261,0.758,-0.086,0.53,-0.47,1.0,0.63,0.96,-0.15
2022-02-09 17:34:08.9520,0.245,0.699,0.064,0.53,-0.47,1.0,0.42,0.78,-0.19
2022-02-09 17:34:08.9620,0.255,0.662,0.099,0.53,-0.47,1.0,0.21,0.58,-0.23
2022-02-09 17:34:08.9730,0.271,0.617,0.083,0.53,-0.47,1.0,0.07,0.45,-0.24
2022-02-09 17:34:08.9830,0.311,0.553,0.044,0.53,-0.47,1.0,0.01,0.32,-0.21
2022-02-09 17:34:08.9940,0.346,0.52,0.022,0.53,-0.47,1.0,-0.08,0.22,-0.18
2022-02-09 17:34:09.0030,0.348,0.526,0.067,0.53,-0.47,1.0,-0.25,0.08,-0.17
2022-02-09 17:34:09.0130,0.322,0.54,0.136,0.53,-0.47,1.0,-0.47,-0.07,-0.22
2022-02-09 17:34:09.0230,0.306,0.545,0.143,0.53,-0.47,1.0,-0.61,-0.18,-0.28
2022-02-09 17:34:09.0330,0.316,0.528,0.093,0.53,-0.47,1.0,-0.64,-0.26,-0.29
2022-02-09 17:34:09.0430,0.341,0.506,0.015,0.53,-0.47,1.0,-0.62,-0.3,-0.27
2022-02-09 17:34:09.5390,0.384,0.486,-0.035,-2.04,3.07,-2.11,0.62,0.27,-1.68
2022-02-09 17:34:09.5390,0.418,0.477,-0.034,-2.04,3.07,-2.11,0.62,0.27,-1.68
2022-02-09 17:34:09.5390,0.44,0.462,-0.012,-2.04,3.07,-2.11,0.62,0.27,-1.68
2022-02-09 17:34:09.5390,0.465,0.466,0.008,-2.04,3.07,-2.11,0.62,0.27,-1.68
2022-02-09 17:34:09.5390,0.487,0.471,0.015,-2.04,3.07,-2.11,0.62,0.27,-1.68
Time,0.508,0.489,0.035,-2.04,3.07,-2.11,0.62,0.27,-1.68
Time,0.521,0.528,0.038,-2.04,3.07,-2.11,0.62,0.27,-1.68
Time,0.537,0.576,0.06,-2.04,3.07,-2.11,0.62,0.27,-1.68
Time,0.558,0.633,0.094,-2.04,3.07,-2.11,0.62,0.27,-1.68
Time,0.598,0.692,0.09,-2.04,3.07,-2.11,0.62,0.27,-1.68
Time,0.624,0.758,0.083,-2.04,3.07,-2.11,0.62,0.27,-1.68
Time,0.63,0.798,0.091,-2.04,3.07,-2.11,0.62,0.27,-1.68
Time,0.634,0.777,0.122,-2.04,3.07,-2.11,0.62,0.27,-1.68
Time,0.617,0.697,0.183,-2.04,3.07,-2.11,0.62,0.27,-1.68
Time,0.645,0.585,0.284,-2.04,3.07,-2.11,0.62,0.27,-1.68
Time,0.728,0.548,0.345,-2.04,3.07,-2.11,0.62,0.27,-1.68
Time,0.811,0.615,0.375,-2.04,3.07,-2.11,0.62,0.27,-1.68
Time,0.877,0.725,0.349,-2.04,3.07,-2.11,0.62,0.27,-1.68
Time,0.878,0.915,0.294,-2.04,3.07,-2.11,0.62,0.27,-1.68
Time,0.774,1.256,0.215,-2.04,3.07,-2.11,0.62,0.27,-1.68
Time,0.671,1.64,0.06,-2.04,3.07,-2.11,0.62,0.27,-1.68
2022-02-09 17:34:09.5380,0.548,1.851,-0.162,-2.04,3.07,-2.11,0.62,0.27,-1.68
2022-02-09 17:34:09.5380,0.405,1.864,-0.19,-2.04,3.07,-2.11,0.62,0.27,-1.68
2022-02-09 17:34:09.5380,0.311,1.816,-0.021,-2.04,3.07,-2.11,0.62,0.27,-1.68
2022-02-09 17:34:09.5380,0.566,1.515,0.031,-2.04,3.07,-2.11,0.62,0.27,-1.68
2022-02-09 17:34:09.5380,0.566,1.515,0.031,-2.04,3.07,-2.11,0.62,0.27,-1.68
2022-02-09 17:34:09.5380,0.774,1.329,-0.047,-2.04,3.07,-2.11,0.62,0.27,-1.68
2022-02-09 17:34:09.5380,0.916,1.204,-0.113,-2.04,3.07,-2.11,0.62,0.27,-1.68
2022-02-09 17:34:09.5380,0.985,1.114,-0.123,-2.04,3.07,-2.11,0.62,0.27,-1.68
2022-02-09 17:34:09.5380,0.961,1.029,-0.109,-2.04,3.07,-2.11,0.62,0.27,-1.68
2022-02-09 17:34:09.5380,0.872,0.985,-0.059,-2.04,3.07,-2.11,0.62,0.27,-1.68
2022-02-09 17:34:09.5380,0.761,0.979,-0.002,-2.04,3.07,-2.11,0.62,0.27,-1.68
2022-02-09 17:34:09.5380,0.657,0.956,0.062,-2.04,3.07,-2.11,0.62,0.27,-1.68
2022-02-09 17:34:09.5380,0.552,0.909,0.1,-2.04,3.07,-2.11,0.62,0.27,-1.68
2022-02-09 17:34:09.5380,0.463,0.859,0.115,-2.04,3.07,-2.11,0.62,0.27,-1.68
2022-02-09 17:34:09.5380,0.399,0.795,0.141,-2.04,3.07,-2.11,0.62,0.27,-1.68
2022-02-09 17:34:09.5380,0.357,0.722,0.187,-2.04,3.07,-2.11,0.62,0.27,-1.68
2022-02-09 17:34:09.5370,0.324,0.636,0.198,-2.04,3.07,-2.11,0.62,0.27,-1.68
2022-02-09 17:34:09.5370,0.322,0.566,0.217,-2.04,3.07,-2.11,0.62,0.27,-1.68
2022-02-09 17:34:09.5370,0.327,0.526,0.238,-2.04,3.07,-2.11,0.62,0.27,-1.68
2022-02-09 17:34:09.5370,0.316,0.472,0.206,-2.04,3.07,-2.11,0.62,0.27,-1.68
2022-02-09 17:34:09.5370,0.31,0.427,0.186,-2.04,3.07,-2.11,0.62,0.27,-1.68
2022-02-09 17:34:09.5370,0.344,0.409,0.179,-2.04,3.07,-2.11,0.62,0.27,-1.68
2022-02-09 17:34:09.5370,0.396,0.382,0.164,-2.04,3.07,-2.11,0.72,0.43,-1.57
2022-02-09 17:34:09.5370,0.413,0.347,0.144,-2.04,3.07,-2.11,0.72,0.43,-1.57
2022-02-09 17:34:09.5460,0.386,0.338,0.145,-2.04,3.07,-2.11,0.73,0.56,-1.59
2022-02-09 17:34:09.5440,0.329,0.362,0.169,-2.04,3.07,-2.11,0.68,0.57,-1.68
2022-02-09 17:34:09.5480,0.303,0.421,0.155,-2.04,3.07,-2.11,0.59,0.53,-1.77
2022-02-09 17:34:09.5490,0.325,0.466,0.129,-2.04,3.07,-2.11,0.53,0.56,-1.88
2022-02-09 17:34:09.5500,0.328,0.503,0.097,-2.04,3.07,-2.11,0.55,0.53,-2.05
2022-02-09 17:34:09.5490,0.344,0.529,0.047,-2.04,3.07,-2.11,0.6,0.4,-2.2
Time,0.389,0.51,0.006,-2.04,3.07,-2.11,0.62,0.17,-2.32
Time,0.452,0.488,0.012,-2.04,3.07,-2.11,0.57,-0.13,-2.27
2022-02-09 17:34:09.5880,0.536,0.437,0.031,-2.04,3.07,-2.11,0.48,-0.4,-2.07
Time,0.603,0.409,0.052,-2.04,3.07,-2.11,0.42,-0.48,-1.77
2022-02-09 17:34:09.6080,0.646,0.426,0.057,-2.04,3.07,-2.11,0.41,-0.37,-1.45
Time,0.658,0.458,0.022,-2.04,3.07,-2.11,0.43,-0.28,-1.17
2022-02-09 17:34:09.6280,0.68,0.511,0.009,-2.04,3.07,-2.11,0.5,-0.34,-0.93
Time,0.678,0.562,-0.044,-2.04,3.07,-2.11,0.65,-0.48,-0.73
2022-02-09 17:34:09.6490,0.68,0.62,-0.136,-2.04,3.07,-2.11,0.84,-0.56,-0.47
2022-02-09 17:34:09.6620,0.705,0.739,-0.157,-2.04,3.07,-2.11,1.01,-0.46,-0.16
2022-02-09 17:34:09.6680,0.68,0.953,-0.164,-2.04,3.07,-2.11,1.11,-0.16,0.09
2022-02-09 17:34:09.6780,0.58,1.161,-0.1,-2.04,3.07,-2.11,0.7,0.21,0.38
2022-02-09 17:34:09.6900,0.521,1.312,0.187,-2.04,3.07,-2.11,0.12,-0.07,0.54
2022-02-09 17:34:09.6980,0.381,1.44,0.188,-2.04,3.07,-2.11,-0.05,-0.32,0.56
Time,0.364,1.595,-0.147,-2.04,3.07,-2.11,-0.01,-0.25,0.51
2022-02-09 17:34:09.7180,0.431,1.808,-0.304,-2.04,3.07,-2.11,0.08,0.01,0.35
2022-02-09 17:34:09.7330,0.441,1.898,-0.451,-2.04,3.07,-2.11,0.11,0.02,0.19
2022-02-09 17:34:09.7390,0.588,1.787,-0.427,-2.04,3.07,-2.11,-0.05,-0.36,0.18
2022-02-09 17:34:09.7540,0.815,1.55,-0.27,-2.04,3.07,-2.11,-0.17,-0.41,0.3
2022-02-09 17:34:09.7590,0.868,1.417,-0.063,-2.04,3.07,-2.11,-0.14,-0.12,0.55
2022-02-09 17:34:09.7720,0.842,1.435,0.085,-2.04,3.07,-2.11,-0.01,0.57,0.73
2022-02-09 17:34:09.7790,0.726,1.523,-0.084,-2.04,3.07,-2.11,0.12,0.87,0.73
2022-02-09 17:34:09.7900,0.625,1.519,-0.31,-2.04,3.07,-2.11,0.21,0.76,0.68
2022-02-09 17:34:09.8030,0.556,1.452,-0.344,-2.04,3.07,-2.11,0.24,0.65,0.55
2022-02-09 17:34:09.8090,0.452,1.399,-0.222,-2.04,3.07,-2.11,0.2,0.7,0.33
2022-02-09 17:34:09.8220,0.396,1.323,-0.14,-2.04,3.07,-2.11,0.2,0.84,0.15
2022-02-09 17:34:09.8220,0.4,1.209,-0.113,-2.04,3.07,-2.11,0.18,0.92,0.05
2022-02-09 17:34:09.8290,0.417,1.094,-0.115,-2.04,3.07,-2.11,0.2,1.03,-0.0
2022-02-09 17:34:09.8510,0.43,1.011,-0.137,-2.04,3.07,-2.11,0.26,1.14,-0.04
2022-02-09 17:34:09.8640,0.424,0.95,-0.14,-2.04,3.07,-2.11,0.31,1.19,-0.06
2022-02-09 17:34:09.8700,0.42,0.899,-0.133,-2.04,3.07,-2.11,0.34,1.17,-0.08
2022-02-09 17:34:09.8840,0.432,0.84,-0.125,-2.69,2.46,-2.33,0.35,1.1,-0.1
2022-02-09 17:34:09.8900,0.447,0.771,-0.108,-2.69,2.46,-2.33,0.35,0.98,-0.1
2022-02-09 17:34:09.9030,0.456,0.715,-0.088,-2.69,2.46,-2.33,0.31,0.82,-0.1
2022-02-09 17:34:09.9100,0.454,0.663,-0.069,-2.69,2.46,-2.33,0.27,0.57,-0.1
2022-02-09 17:34:09.9240,0.439,0.603,-0.035,-2.69,2.46,-2.33,0.2,0.33,-0.11
2022-02-09 17:34:09.9300,0.42,0.545,0.009,-2.69,2.46,-2.33,0.12,0.2,-0.11
2022-02-09 17:34:09.9430,0.427,0.488,0.014,-2.69,2.46,-2.33,0.08,0.13,-0.08
2022-02-09 17:34:09.9560,0.436,0.439,0.009,-2.69,2.46,-2.33,0.01,0.04,-0.03
2022-02-09 17:34:09.9610,0.435,0.387,0.039,-2.69,2.46,-2.33,-0.11,-0.05,0.05
Time,0.442,0.35,0.064,-2.69,2.46,-2.33,-0.25,-0.1,0.14
2022-02-09 17:34:09.9810,0.451,0.324,0.063,-2.69,2.46,-2.33,-0.38,-0.11,0.23
2022-02-09 17:34:09.9910,0.458,0.3,0.064,-2.69,2.46,-2.33,-0.52,-0.14,0.36
2022-02-09 17:34:10.0010,0.477,0.258,0.092,-2.69,2.46,-2.33,-0.67,-0.21,0.52
2022-02-09 17:34:10.0110,0.492,0.237,0.109,-2.69,2.46,-2.33,-0.81,-0.31,0.69
2022-02-09 17:34:10.0330,0.494,0.228,0.143,-2.69,2.46,-2.33,-0.99,-0.4,0.85
2022-02-09 17:34:10.0330,0.476,0.217,0.265,-2.69,2.46,-2.33,-1.27,-0.48,1.02
2022-02-09 17:34:10.0450,0.464,0.213,0.415,-2.69,2.46,-2.33,-1.54,-0.47,1.19
2022-02-09 17:34:10.0500,0.462,0.221,0.453,-2.69,2.46,-2.33,-1.66,-0.29,1.35
2022-02-09 17:34:10.0440,0.502,0.227,0.396,-2.69,2.46,-2.33,-1.74,-0.05,1.53
2022-02-09 17:34:10.0710,0.575,0.237,0.343,-2.69,2.46,-2.33,-1.86,0.14,1.73
2022-02-09 17:34:10.0830,0.64,0.28,0.222,-2.69,2.46,-2.33,-1.97,0.17,1.89
Time,0.68,0.369,0.099,-2.69,2.46,-2.33,-2.03,0.0,1.98
2022-02-09 17:34:10.1020,0.638,0.508,0.076,-2.69,2.46,-2.33,-2.05,-0.22,2.05
2022-02-09 17:34:10.1170,0.555,0.675,0.121,-2.69,2.46,-2.33,-2.01,-0.34,2.15
2022-02-09 17:34:10.1220,0.474,0.823,0.183,-2.69,2.46,-2.33,-1.89,-0.39,2.36
2022-02-09 17:34:10.1320,0.443,0.997,0.249,-2.69,2.46,-2.33,-1.82,-0.19,2.62
2022-02-09 17:34:10.1420,0.35,1.336,0.4,-2.69,2.46,-2.33,-1.69,0.16,2.66
2022-02-09 17:34:10.1520,0.281,1.852,0.093,-3.17,1.33,-2.07,-1.04,0.18,2.14
2022-02-09 17:34:10.1650,0.276,2.093,-0.443,-3.17,1.33,-2.07,-0.97,-0.24,1.23
2022-02-09 17:34:10.1720,0.319,1.995,-0.394,-3.17,1.33,-2.07,-0.8,-0.95,0.39
2022-02-09 17:34:10.1820,0.443,2.022,-0.309,-3.17,1.33,-2.07,-0.26,-1.44,-0.22
2022-02-09 17:34:10.1960,0.623,1.902,-0.172,-3.17,1.33,-2.07,0.15,-1.67,-0.53
2022-02-09 17:34:10.2020,0.87,1.641,-0.01,-3.17,1.33,-2.07,0.32,-1.74,-0.64
2022-02-09 17:34:10.2170,1.17,1.397,0.082,-3.17,1.33,-2.07,0.33,-1.71,-0.63
2022-02-09 17:34:10.2220,1.374,1.215,0.091,-3.17,1.33,-2.07,0.27,-1.68,-0.54
2022-02-09 17:34:10.2350,1.439,1.082,0.061,-3.17,1.33,-2.07,0.24,-1.73,-0.38
2022-02-09 17:34:10.2420,1.355,0.986,0.014,-3.17,1.33,-2.07,0.27,-1.79,-0.21
2022-02-09 17:34:10.2560,1.167,0.94,0.023,-3.17,1.33,-2.07,0.33,-1.79,-0.07
2022-02-09 17:34:10.2630,0.937,0.911,0.082,-3.17,1.33,-2.07,0.42,-1.54,-0.01
2022-02-09 17:34:10.2730,0.709,0.878,0.205,-3.17,1.33,-2.07,0.49,-1.06,-0.07
2022-02-09 17:34:10.2860,0.525,0.848,0.316,-3.17,1.33,-2.07,0.48,-0.61,-0.23
2022-02-09 17:34:10.2930,0.378,0.819,0.343,-3.17,1.33,-2.07,0.46,-0.21,-0.46
2022-02-09 17:34:10.3070,0.292,0.77,0.34,-3.17,1.33,-2.07,0.51,0.22,-0.71
2022-02-09 17:34:10.3130,0.252,0.711,0.289,-3.17,1.33,-2.07,0.66,0.66,-0.96
Time,0.251,0.614,0.22,-3.17,1.33,-2.07,0.85,1.08,-1.15
2022-02-09 17:34:10.3330,0.282,0.551,0.171,-3.17,1.33,-2.07,1.04,1.36,-1.29
2022-02-09 17:34:10.3470,0.361,0.541,0.091,-3.17,1.33,-2.07,1.21,1.48,-1.39
2022-02-09 17:34:10.3540,0.457,0.522,0.026,-3.23,-0.44,-1.43,1.29,1.42,-1.44
2022-02-09 17:34:10.3630,0.51,0.499,0.026,-3.23,-0.44,-1.43,1.22,1.2,-1.52
Time,0.468,0.488,0.045,-3.23,-0.44,-1.43,1.22,1.2,-1.52
2022-02-09 17:34:10.3840,0.424,0.467,0.061,-3.23,-0.44,-1.43,0.96,0.67,-1.58
2022-02-09 17:34:10.3960,0.405,0.443,0.08,-3.23,-0.44,-1.43,0.85,0.55,-1.63
2022-02-09 17:34:10.4040,0.36,0.472,0.083,-3.23,-0.44,-1.43,0.78,0.44,-1.75
2022-02-09 17:34:10.4170,0.287,0.514,0.074,-3.23,-0.44,-1.43,0.71,0.26,-1.87
2022-02-09 17:34:10.4240,0.239,0.547,0.073,-3.23,-0.44,-1.43,0.67,0.13,-2.05
2022-02-09 17:34:10.4370,0.225,0.568,0.085,-3.23,-0.44,-1.43,0.68,0.2,-2.23
2022-02-09 17:34:10.4440,0.264,0.582,0.103,-3.23,-0.44,-1.43,0.78,0.42,-2.27
2022-02-09 17:34:10.4580,0.402,0.521,0.126,-3.23,-0.44,-1.43,0.89,0.53,-2.08
2022-02-09 17:34:10.4640,0.519,0.383,0.107,-3.23,-0.44,-1.43,0.93,0.42,-1.81
2022-02-09 17:34:10.4780,0.569,0.306,0.026,-3.23,-0.44,-1.43,0.9,0.1,-1.54
2022-02-09 17:34:10.4840,0.59,0.275,-0.083,-3.23,-0.44,-1.43,0.82,-0.25,-1.27
2022-02-09 17:34:10.4960,0.562,0.269,-0.186,-2.08,-3.64,-0.62,0.79,-0.54,-1.1
2022-02-09 17:34:10.5040,0.499,0.323,-0.328,-2.08,-3.64,-0.62,0.88,-0.57,-1.01
2022-02-09 17:34:10.5170,0.39,0.491,-0.313,-2.08,-3.64,-0.62,0.96,-0.15,-0.91
2022-02-09 17:34:10.5300,0.245,0.561,0.002,-2.08,-3.64,-0.62,0.86,0.73,-0.62
2022-02-09 17:34:10.5350,0.26,0.548,0.532,-2.08,-3.64,-0.62,0.41,1.17,-0.35
2022-02-09 17:34:10.5470,0.359,0.795,0.491,-2.08,-3.64,-0.62,-0.07,0.6,-0.31
2022-02-09 17:34:10.5550,0.435,1.176,0.02,-2.08,-3.64,-0.62,-0.03,0.04,-0.55
2022-02-09 17:34:10.5660,0.447,1.593,-0.477,-2.08,-3.64,-0.62,0.07,-0.4,-0.72
2022-02-09 17:34:10.5790,0.538,1.716,-0.309,-2.08,-3.64,-0.62,0.31,-0.37,-0.87
2022-02-09 17:34:10.5850,0.545,1.886,-0.448,-0.81,-7.72,0.76,0.58,-0.04,-1.08
2022-02-09 17:34:10.5990,0.548,1.885,-0.455,-0.81,-7.72,0.76,0.52,-0.53,-1.09
2022-02-09 17:34:10.6050,0.763,1.696,-0.232,-0.81,-7.72,0.76,0.22,-0.66,-0.97
2022-02-09 17:34:10.6180,0.906,1.617,-0.232,-0.81,-7.72,0.76,-0.16,-0.79,-0.59
2022-02-09 17:34:10.6250,1.001,1.379,0.027,-0.81,-7.72,0.76,-0.57,-0.93,-0.0
2022-02-09 17:34:10.6360,0.952,1.226,0.006,-0.81,-7.72,0.76,-0.5,-0.25,0.3
2022-02-09 17:34:10.6500,0.781,1.43,-0.319,-0.81,-7.72,0.76,-0.24,0.27,0.47
2022-02-09 17:34:10.6560,0.662,1.522,-0.403,0.54,-10.56,3.06,-0.05,0.6,0.44
2022-02-09 17:34:10.6700,0.552,1.458,-0.358,0.54,-10.56,3.06,0.09,0.98,0.34
2022-02-09 17:34:10.6760,0.499,1.361,-0.342,0.54,-10.56,3.06,0.22,1.1,0.27
2022-02-09 17:34:10.6890,0.528,1.281,-0.417,0.54,-10.56,3.06,0.34,1.09,0.22
2022-02-09 17:34:10.6960,0.515,1.195,-0.354,0.54,-10.56,3.06,0.39,1.09,0.16
2022-02-09 17:34:10.7080,0.482,1.17,-0.246,2.09,-11.21,4.08,0.41,1.13,0.12
Time,0.49,1.131,-0.205,2.09,-11.21,4.08,0.43,1.13,0.1
2022-02-09 17:34:10.7270,0.496,1.058,-0.207,2.09,-11.21,4.08,0.45,1.08,0.09
2022-02-09 17:34:10.7360,0.49,0.977,-0.18,2.09,-11.21,4.08,0.42,0.98,0.11
Time,0.484,0.897,-0.139,2.09,-11.21,4.08,0.38,0.86,0.12
2022-02-09 17:34:10.7620,0.49,0.811,-0.114,3.36,-10.94,2.67,0.34,0.76,0.16
2022-02-09 17:34:10.7730,0.491,0.721,-0.092,3.36,-10.94,2.67,0.25,0.64,0.21
2022-02-09 17:34:10.7800,0.481,0.632,-0.012,3.3,-10.15,1.44,0.06,0.49,0.3
2022-02-09 17:34:10.7870,0.477,0.501,0.145,3.3,-10.15,1.44,-0.27,0.4,0.4
2022-02-09 17:34:10.7990,0.496,0.382,0.317,1.67,-8.45,1.58,-0.68,0.33,0.61
2022-02-09 17:34:10.8070,0.593,0.285,0.371,1.67,-8.45,1.58,-1.02,0.24,0.92
2022-02-09 17:34:10.8200,0.659,0.168,0.293,-0.45,-6.58,2.28,-1.19,0.25,1.3
2022-02-09 17:34:10.8270,0.741,0.041,0.206,-0.45,-6.58,2.28,-1.34,0.26,1.79
2022-02-09 17:34:10.8270,0.808,-0.031,0.224,-0.45,-6.58,2.28,-1.54,0.16,2.3
2022-02-09 17:34:10.8500,0.752,0.024,0.318,-1.96,-5.22,2.98,-1.69,0.08,2.6
2022-02-09 17:34:10.8570,0.571,0.24,0.383,-1.96,-5.22,2.98,-1.79,0.03,2.6
2022-02-09 17:34:10.8690,0.387,0.444,0.426,-1.96,-5.22,2.98,-1.86,0.2,2.45
2022-02-09 17:34:10.8800,0.323,0.504,0.496,-2.81,-4.34,3.17,-1.83,0.55,2.31
2022-02-09 17:34:10.8880,0.371,0.484,0.327,-2.81,-4.34,3.17,-1.66,0.88,2.27
2022-02-09 17:34:10.9030,0.37,0.526,0.041,-2.81,-4.34,3.17,-1.5,0.85,2.26
2022-02-09 17:34:10.9080,0.302,0.576,-0.123,-2.75,-3.49,3.0,-1.47,0.58,2.25
2022-02-09 17:34:10.9220,0.184,0.659,-0.073,-2.75,-3.49,3.0,-1.6,0.31,2.2
2022-02-09 17:34:10.9280,0.071,0.747,0.029,-2.75,-3.49,3.0,-1.75,0.1,2.21
2022-02-09 17:34:10.9430,-0.024,0.85,0.064,-1.96,-2.95,2.55,-1.73,-0.23,2.19
2022-02-09 17:34:10.9480,-0.093,1.03,-0.02,-1.96,-2.95,2.55,-1.38,-0.54,2.2
2022-02-09 17:34:10.9620,-0.059,1.235,-0.166,-0.84,-2.87,1.89,-0.89,-0.67,2.0
2022-02-09 17:34:10.9680,-0.023,1.423,-0.261,-0.84,-2.87,1.89,-0.44,-0.71,1.52
Time,0.135,1.593,-0.356,-0.84,-2.87,1.89,-0.12,-0.84,0.98
2022-02-09 17:34:10.9890,0.285,1.616,-0.376,0.22,-2.72,1.21,-0.17,-1.09,0.27
2022-02-09 17:34:10.9980,0.368,1.684,-0.333,0.22,-2.72,1.21,-0.27,-1.29,-0.37
2022-02-09 17:34:11.0080,0.472,1.673,-0.209,1.26,-2.29,0.67,-0.08,-1.2,-0.74
2022-02-09 17:34:11.0190,0.572,1.503,-0.008,1.26,-2.29,0.67,0.2,-0.93,-0.92
2022-02-09 17:34:11.0340,0.759,1.329,0.133,2.19,-1.79,0.41,0.37,-0.63,-0.92
2022-02-09 17:34:11.0470,0.961,1.165,0.163,3.55,0.45,-0.63,0.44,-0.5,-0.82
2022-02-09 17:34:27.5730,1.089,1.063,0.101,-1.17,-9.04,4.58,0.51,-0.65,-0.7
2022-02-09 17:34:27.5800,1.099,0.987,0.025,0.22,-0.7,1.66,0.51,-0.91,-0.61
Time,1.025,0.878,0.027,-0.01,2.72,0.81,0.42,-1.08,-0.57
2022-02-09 17:34:27.5840,0.923,0.805,0.094,-0.01,2.72,0.81,0.39,-1.17,-0.59
2022-02-09 17:34:27.5860,0.825,0.759,0.201,0.04,4.37,0.28,0.42,-1.12,-0.66
2022-02-09 17:34:27.5850,0.698,0.728,0.33,-1.32,4.76,0.23,0.46,-0.83,-0.76
2022-02-09 17:34:27.5950,0.617,0.718,0.37,-1.32,4.76,0.23,0.49,-0.46,-0.87
2022-02-09 17:34:27.5760,0.605,0.717,0.296,-0.96,3.39,0.86,0.53,-0.11,-0.98
2022-02-09 17:34:27.5630,0.614,0.696,0.182,-0.02,1.61,0.69,0.58,0.22,-1.08
2022-02-09 17:34:27.6000,0.646,0.682,0.124,3.9,-13.58,5.93,0.65,0.56,-1.23
2022-02-09 17:34:27.5860,0.655,0.669,0.092,3.9,-13.58,5.93,0.76,0.83,-1.39
2022-02-09 17:34:27.5950,0.648,0.647,0.064,3.63,-12.89,6.59,0.91,1.08,-1.52
2022-02-09 17:34:27.5970,0.655,0.627,0.043,3.63,-12.89,6.59,1.11,1.29,-1.6
2022-02-09 17:34:27.5970,0.638,0.604,-0.003,2.71,-13.01,5.58,1.25,1.31,-1.67
2022-02-09 17:34:27.6000,0.593,0.6,-0.054,2.71,-13.01,5.58,1.28,1.15,-1.75
2022-02-09 17:34:27.5960,0.564,0.628,-0.072,2.71,-13.01,5.58,1.2,0.9,-1.79
2022-02-09 17:34:27.6010,0.538,0.632,-0.032,2.71,-13.01,5.58,1.05,0.67,-1.86
2022-02-09 17:34:27.6040,0.441,0.619,0.061,-6.42,-5.41,0.98,0.98,0.59,-1.86
2022-02-09 17:34:27.6060,0.393,0.567,0.189,-6.42,-5.41,0.98,0.99,0.66,-1.73
2022-02-09 17:34:27.6060,0.429,0.418,0.296,-6.42,-5.41,0.98,0.99,0.66,-1.73
Time,0.492,0.26,0.307,-6.42,-5.41,0.98,1.02,1.08,-1.15
Time,0.532,0.172,0.225,-6.42,-5.41,0.98,0.92,1.1,-0.8
Time,0.534,0.122,0.203,-7.41,-3.94,1.05,0.63,0.99,-0.46
2022-02-09 17:34:27.6120,0.474,0.119,0.204,-7.41,-3.94,1.05,0.56,1.05,-0.13
2022-02-09 17:34:27.6120,0.415,0.209,-0.151,2.7,-1.06,-2.3,1.02,1.25,0.17
Time,0.385,0.407,-0.441,2.7,-1.06,-2.3,1.11,1.04,0.36
2022-02-09 17:34:27.6140,0.345,0.593,-0.135,2.7,-1.06,-2.3,0.38,0.46,0.43
Time,0.331,0.708,0.244,2.7,-1.06,-2.3,0.29,-0.11,0.41
Time,0.471,1.017,-0.395,3.68,-0.59,-2.4,0.5,-0.18,0.26
Time,0.419,1.26,-0.191,3.06,2.06,-0.14,0.28,-0.09,0.14
2022-02-09 17:34:27.6170,0.507,1.548,-0.104,1.99,2.3,0.62,0.69,-0.01,-0.22
Time,0.683,1.89,-0.411,1.99,2.3,0.62,0.37,0.12,-0.63
2022-02-09 17:34:27.6230,0.832,1.704,-0.074,1.99,2.3,0.62,0.15,-0.07,-0.75
2022-02-09 17:34:27.6320,1.051,1.485,-0.136,1.99,2.3,0.62,0.21,0.18,-0.59
2022-02-09 17:34:27.6240,1.121,1.295,-0.113,1.17,2.65,0.76,0.06,0.58,-0.22
2022-02-09 17:34:27.6300,0.986,1.15,-0.045,1.17,2.65,0.76,0.16,0.7,-0.03
2022-02-09 17:34:27.6320,0.916,1.223,-0.325,1.17,2.65,0.76,0.28,0.69,-0.09
2022-02-09 17:34:27.6310,0.877,1.385,-0.427,1.17,2.65,0.76,0.3,0.64,-0.24
2022-02-09 17:34:27.6330,0.777,1.344,-0.421,1.25,2.89,0.54,0.34,0.6,-0.34
Time,0.695,1.199,-0.32,1.25,2.89,0.54,0.38,0.52,-0.42
2022-02-09 17:34:27.6350,0.63,1.093,-0.184,1.25,2.89,0.54,0.38,0.59,-0.52
2022-02-09 17:34:27.6370,0.558,1.017,-0.116,1.25,2.89,0.54,0.43,0.69,-0.65
2022-02-09 17:34:27.6360,0.524,0.939,-0.246,1.64,3.14,0.37,0.62,0.81,-0.76
2022-02-09 17:34:27.6370,0.537,0.848,-0.292,1.64,3.14,0.37,0.66,1.0,-0.85
2022-02-09 17:34:27.6380,0.537,0.771,-0.218,1.64,3.14,0.37,0.65,1.0,-0.91
2022-02-09 17:34:27.6380,0.547,0.721,-0.268,1.64,3.14,0.37,0.67,0.92,-0.89
2022-02-09 17:34:27.6410,0.556,0.705,-0.283,1.7,3.54,0.12,0.66,0.87,-0.86
2022-02-09 17:34:27.6440,0.522,0.691,-0.231,1.7,3.54,0.12,0.64,0.88,-0.86
2022-02-09 17:34:27.6430,0.515,0.672,-0.224,1.7,3.54,0.12,0.65,0.89,-0.9
2022-02-09 17:34:27.6490,0.552,0.636,-0.203,1.7,3.54,0.12,0.58,0.91,-0.91
2022-02-09 17:34:27.6440,0.575,0.549,-0.098,1.7,3.54,0.12,0.39,0.89,-0.88
2022-02-09 17:34:27.6450,0.607,0.426,-0.016,1.91,3.47,0.01,0.26,0.9,-0.73
2022-02-09 17:34:27.6460,0.694,0.265,-0.007,1.91,3.47,0.01,0.2,1.0,-0.43
2022-02-09 17:34:27.6480,0.738,0.177,0.026,1.91,3.47,0.01,0.14,1.07,-0.13
2022-02-09 17:34:27.6480,0.711,0.178,0.06,1.91,3.47,0.01,0.14,1.07,-0.13
2022-02-09 17:34:27.6480,0.681,0.211,0.166,1.91,3.47,0.01,-0.32,1.14,0.36
2022-02-09 17:34:27.6500,0.629,0.253,0.335,1.91,3.47,0.01,-0.74,0.99,0.47
2022-02-09 17:34:27.6500,0.588,0.328,0.298,2.48,3.17,0.06,-0.97,0.77,0.49
2022-02-09 17:34:27.6530,0.557,0.386,0.181,2.48,3.17,0.06,-1.18,0.71,0.55
2022-02-09 17:34:27.6520,0.515,0.376,0.205,2.48,3.17,0.06,-1.42,0.86,0.66
2022-02-09 17:34:27.6550,0.48,0.32,0.203,2.48,3.17,0.06,-1.51,1.2,0.82
2022-02-09 17:34:27.6540,0.451,0.297,0.056,2.48,3.17,0.06,-1.43,1.65,1.01
2022-02-09 17:34:27.6600,0.409,0.374,-0.1,2.48,3.17,0.06,-1.22,2.04,1.17
2022-02-09 17:34:27.6560,0.394,0.542,-0.163,2.48,3.17,0.06,-0.95,2.29,1.38
2022-02-09 17:34:27.6580,0.465,0.794,-0.236,2.84,2.92,0.04,-0.63,2.46,1.72
2022-02-09 17:34:27.6580,0.626,1.216,-0.294,2.84,2.92,0.04,-0.34,2.58,2.13
2022-02-09 17:34:27.6600,0.818,1.905,-0.427,2.84,2.92,0.04,-0.14,2.24,1.77
2022-02-09 17:34:27.6600,0.491,2.425,-0.7,2.84,2.92,0.04,-0.68,2.05,1.25
2022-02-09 17:34:27.6620,0.509,2.568,-0.515,2.84,2.92,0.04,-0.59,1.62,0.88
2022-02-09 17:34:27.6630,0.717,2.473,-0.587,2.84,2.92,0.04,-0.2,1.12,0.96
2022-02-09 17:34:27.6610,1.005,2.152,-0.506,2.84,2.92,0.04,0.11,1.07,1.26
2022-02-09 17:34:27.6660,1.116,1.96,-0.399,2.84,2.92,0.04,0.27,1.02,1.46
2022-02-09 17:34:27.6660,1.144,1.867,-0.383,2.84,2.92,0.04,0.27,1.02,1.46
2022-02-09 17:34:27.6660,1.127,1.715,-0.331,2.84,2.92,0.04,0.76,0.41,1.93
2022-02-09 17:34:27.6680,1.031,1.572,-0.217,2.84,2.92,0.04,0.99,0.3,2.11
2022-02-09 17:34:27.6680,0.928,1.451,-0.101,2.84,2.92,0.04,1.16,0.36,2.22
2022-02-09 17:34:27.6680,0.83,1.32,-0.054,2.84,2.92,0.04,1.34,0.47,2.32
2022-02-09 17:34:27.6720,0.745,1.208,-0.054,2.94,2.8,-0.09,1.56,0.64,2.43
2022-02-09 17:34:27.6710,0.672,1.162,-0.088,2.94,2.8,-0.09,1.82,0.9,2.51
2022-02-09 17:34:27.6770,0.622,1.169,-0.163,2.94,2.8,-0.09,2.06,1.23,2.51
2022-02-09 17:34:27.6750,0.556,1.183,-0.23,2.94,2.8,-0.09,2.21,1.57,2.44
2022-02-09 17:34:27.6740,0.489,1.157,-0.262,2.94,2.8,-0.09,2.27,1.84,2.29
2022-02-09 17:34:27.6760,0.421,1.103,-0.271,2.94,2.8,-0.09,2.28,2.04,2.08
2022-02-09 17:34:27.6780,0.337,1.045,-0.261,2.94,2.8,-0.09,2.29,2.2,1.83
2022-02-09 17:34:27.6780,0.264,0.993,-0.239,2.94,2.8,-0.09,2.26,2.28,1.51
2022-02-09 17:34:27.6790,0.184,0.926,-0.164,2.94,2.8,-0.09,2.26,2.42,1.14
2022-02-09 17:34:27.6800,0.146,0.831,-0.067,2.94,2.8,-0.09,2.3,2.61,0.77
2022-02-09 17:34:27.6820,0.164,0.726,0.011,2.94,2.8,-0.09,2.32,2.76,0.43
2022-02-09 17:34:27.6830,0.195,0.637,0.045,2.94,2.8,-0.09,2.33,2.89,0.17
2022-02-09 17:34:27.6830,0.228,0.556,0.045,2.94,2.8,-0.09,2.34,2.97,-0.0
2022-02-09 17:34:27.6840,0.246,0.492,0.043,2.94,2.8,-0.09,2.36,2.97,-0.11
2022-02-09 17:34:27.6850,0.265,0.474,0.049,2.94,2.8,-0.09,2.35,2.95,-0.19
2022-02-09 17:34:27.6880,0.251,0.507,0.07,2.94,2.8,-0.09,2.32,2.96,-0.31
2022-02-09 17:34:27.6860,0.203,0.547,0.099,2.94,2.8,-0.09,2.26,2.98,-0.48
Time,0.153,0.568,0.139,2.94,2.8,-0.09,2.15,2.97,-0.67
2022-02-09 17:34:27.6890,0.125,0.583,0.19,2.94,2.8,-0.09,2.0,2.99,-0.84
2022-02-09 17:34:27.6890,0.132,0.592,0.229,2.94,2.8,-0.09,1.81,3.0,-1.0
2022-02-09 17:34:27.6940,0.131,0.613,0.291,2.51,2.75,-0.31,1.57,3.02,-1.13
2022-02-09 17:34:27.6920,0.17,0.633,0.358,2.51,2.75,-0.31,1.36,2.9,-1.2
2022-02-09 17:34:27.6950,0.319,0.651,0.301,2.51,2.75,-0.31,1.21,2.63,-1.15
2022-02-09 17:34:27.6940,0.536,0.64,0.239,2.51,2.75,-0.31,0.96,2.41,-1.04
2022-02-09 17:34:27.7000,0.729,0.609,0.351,2.51,2.75,-0.31,0.62,2.01,-0.83
2022-02-09 17:34:27.6950,0.965,0.571,0.265,2.51,2.75,-0.31,0.37,1.04,-0.49
2022-02-09 17:34:27.6990,1.234,0.528,-0.041,2.51,2.75,-0.31,0.22,-0.15,-0.09
2022-02-09 17:34:27.6990,1.332,0.584,-0.216,2.51,2.75,-0.31,0.04,-1.08,0.15
Time,1.281,0.713,-0.115,2.51,2.75,-0.31,-0.25,-1.7,0.25
2022-02-09 17:34:27.7020,1.131,0.749,-0.028,2.51,2.75,-0.31,-0.44,-2.11,0.14
2022-02-09 17:34:27.7030,0.95,0.733,-0.088,2.51,2.75,-0.31,-0.43,-2.37,-0.01
2022-02-09 17:34:27.7020,0.873,0.74,-0.18,2.51,2.75,-0.31,-0.26,-2.5,-0.08
2022-02-09 17:34:27.7050,0.813,0.777,-0.271,2.51,2.75,-0.31,0.1,-2.33,-0.09
2022-02-09 17:34:27.7050,0.734,0.833,-0.386,2.51,2.75,-0.31,0.56,-1.85,-0.04
Time,0.682,0.849,-0.481,2.51,2.75,-0.31,1.04,-1.2,0.02
Time,0.647,0.864,-0.623,2.51,2.75,-0.31,1.04,-1.2,0.02
2022-02-09 17:34:27.7080,0.577,0.964,-0.648,2.51,2.75,-0.31,1.9,-0.1,0.02
2022-02-09 17:34:27.7090,0.466,1.141,-0.403,2.51,2.75,-0.31,1.68,0.32,-0.02
2022-02-09 17:34:27.7110,0.311,1.291,0.956,2.51,2.75,-0.31,0.9,0.75,-0.1
2022-02-09 17:34:27.7110,0.377,1.148,1.217,2.51,2.75,-0.31,0.56,1.59,-0.24
2022-02-09 17:34:27.7140,0.541,0.894,0.701,2.51,2.75,-0.31,0.42,2.06,-0.46
Time,0.722,0.881,-0.07,2.51,2.75,-0.31,0.53,1.78,-0.55
2022-02-09 17:34:27.7140,1.017,1.013,-0.542,2.51,2.75,-0.31,0.6,0.79,-0.44
2022-02-09 17:34:27.7160,1.039,1.049,-0.572,2.51,2.75,-0.31,0.63,0.1,-0.41
2022-02-09 17:34:27.7180,0.761,1.066,-0.535,2.51,2.75,-0.31,0.71,-0.05,-0.55
Time,0.405,1.145,-0.486,2.51,2.75,-0.31,0.87,0.02,-0.74
Time,0.132,1.2,-0.269,2.51,2.75,-0.31,1.0,0.48,-0.98
2022-02-09 17:34:27.7200,-0.067,1.231,-0.058,2.51,2.75,-0.31,1.06,1.09,-1.26
2022-02-09 17:34:27.7200,-0.149,1.213,-0.054,2.51,2.75,-0.31,1.09,1.51,-1.43
2022-02-09 17:34:27.7210,-0.126,1.165,-0.159,2.51,2.75,-0.31,1.11,1.75,-1.54
2022-02-09 17:34:27.7230,-0.102,1.144,-0.19,2.51,2.75,-0.31,1.07,1.91,-1.68
2022-02-09 17:34:27.7260,-0.094,1.155,-0.152,2.51,2.75,-0.31,1.06,1.97,-1.82
2022-02-09 17:34:27.7260,-0.02,1.164,-0.202,2.51,2.75,-0.31,1.06,1.95,-1.89
2022-02-09 17:34:27.7250,0.094,1.105,-0.215,2.51,2.75,-0.31,0.95,1.84,-1.88
2022-02-09 17:34:27.7280,0.173,1.039,-0.154,2.51,2.75,-0.31,0.8,1.71,-1.82
2022-02-09 17:34:27.7260,0.247,1.005,-0.108,2.51,2.75,-0.31,0.69,1.56,-1.76
Time,0.294,0.974,-0.102,2.51,2.75,-0.31,0.62,1.36,-1.7
2022-02-09 17:34:27.7320,0.339,0.961,-0.101,2.51,2.75,-0.31,0.57,1.13,-1.67
2022-02-09 17:34:27.7310,0.368,0.948,-0.114,1.19,3.18,-0.57,0.53,0.87,-1.68
2022-02-09 17:34:27.7310,0.404,0.921,-0.13,1.19,3.18,-0.57,0.51,0.63,-1.68
2022-02-09 17:34:27.7330,0.423,0.89,-0.114,1.19,3.18,-0.57,0.48,0.48,-1.66
2022-02-09 17:34:27.7340,0.415,0.864,-0.073,1.19,3.18,-0.57,0.46,0.52,-1.61
2022-02-09 17:34:27.7350,0.409,0.847,-0.035,1.19,3.18,-0.57,0.5,0.72,-1.55
2022-02-09 17:34:27.7420,0.397,0.822,-0.022,1.19,3.18,-0.57,0.53,0.95,-1.47
2022-02-09 17:34:27.7380,0.383,0.804,-0.029,1.19,3.18,-0.57,0.53,1.16,-1.38
2022-02-09 17:34:27.7390,0.369,0.796,-0.047,1.19,3.18,-0.57,0.51,1.4,-1.3
2022-02-09 17:34:27.7380,0.348,0.788,-0.059,1.19,3.18,-0.57,0.51,1.63,-1.22
2022-02-09 17:34:27.7400,0.319,0.797,-0.079,1.19,3.18,-0.57,0.49,1.8,-1.18
2022-02-09 17:34:27.7480,0.283,0.82,-0.104,1.19,3.18,-0.57,0.48,1.91,-1.17
2022-02-09 17:34:27.7440,0.268,0.825,-0.129,1.19,3.18,-0.57,0.48,1.89,-1.18
2022-02-09 17:34:27.7450,0.271,0.829,-0.143,1.19,3.18,-0.57,0.47,1.8,-1.19
2022-02-09 17:34:27.7450,0.265,0.83,-0.118,1.19,3.18,-0.57,0.46,1.75,-1.18
2022-02-09 17:34:27.7460,0.244,0.827,-0.085,1.19,3.18,-0.57,0.46,1.78,-1.15
2022-02-09 17:34:27.7480,0.219,0.836,-0.074,1.19,3.18,-0.57,0.47,1.84,-1.12
2022-02-09 17:34:27.7510,0.193,0.859,-0.068,1.19,3.18,-0.57,0.47,1.92,-1.1
2022-02-09 17:34:27.7520,0.186,0.883,-0.081,1.19,3.18,-0.57,0.47,1.99,-1.07
2022-02-09 17:34:27.7560,0.193,0.902,-0.116,1.19,3.18,-0.57,0.48,2.05,-1.04
2022-02-09 17:34:27.7500,0.212,0.927,-0.154,1.19,3.18,-0.57,0.54,2.1,-1.01
2022-02-09 17:34:27.7510,0.24,0.945,-0.189,1.19,3.18,-0.57,0.61,2.14,-0.97
2022-02-09 17:34:27.7540,0.262,0.955,-0.203,1.19,3.18,-0.57,0.67,2.18,-0.94
2022-02-09 17:34:27.7570,0.277,0.951,-0.186,1.19,3.18,-0.57,0.7,2.21,-0.92
2022-02-09 17:34:27.7570,0.286,0.932,-0.159,1.19,3.18,-0.57,0.7,2.21,-0.88
2022-02-09 17:34:27.7590,0.307,0.907,-0.153,1.19,3.18,-0.57,0.65,2.11,-0.83
2022-02-09 17:34:27.7580,0.335,0.901,-0.178,1.19,3.18,-0.57,0.57,1.92,-0.78
2022-02-09 17:34:27.7580,0.358,0.904,-0.209,1.19,3.18,-0.57,0.5,1.71,-0.72
2022-02-09 17:34:27.7610,0.34,0.908,-0.212,1.19,3.18,-0.57,0.46,1.56,-0.65
Time,0.315,0.911,-0.19,1.19,3.18,-0.57,0.42,1.48,-0.6
2022-02-09 17:34:27.7640,0.292,0.93,-0.151,1.19,3.18,-0.57,0.36,1.4,-0.56
2022-02-09 17:34:27.7650,0.29,0.952,-0.126,1.19,3.18,-0.57,0.28,1.32,-0.54
2022-02-09 17:34:27.7640,0.277,0.962,-0.115,1.19,3.18,-0.57,0.22,1.28,-0.52
Time,0.284,0.958,-0.118,1.19,3.18,-0.57,0.2,1.3,-0.45
2022-02-09 17:34:27.7690,0.325,0.949,-0.149,1.19,3.18,-0.57,0.2,1.29,-0.33
2022-02-09 17:34:27.7700,0.323,0.957,-0.169,1.19,3.18,-0.57,0.2,1.24,-0.2
2022-02-09 17:34:27.7700,0.313,0.986,-0.18,1.19,3.18,-0.57,0.17,1.16,-0.1
2022-02-09 17:34:27.7720,0.306,1.028,-0.173,1.19,3.18,-0.57,0.11,1.05,-0.02
2022-02-09 17:34:27.7710,0.313,1.061,-0.148,1.19,3.18,-0.57,0.03,0.9,0.02
2022-02-09 17:34:27.7710,0.331,1.084,-0.109,1.19,3.18,-0.57,0.03,0.9,0.02
2022-02-09 17:34:27.7770,0.381,1.101,-0.095,1.19,3.18,-0.57,-0.23,0.46,0.07
2022-02-09 17:34:27.7750,0.459,1.107,-0.107,1.19,3.18,-0.57,-0.39,0.25,0.11
Time,0.535,1.098,-0.122,1.19,3.18,-0.57,-0.53,0.11,0.23
2022-02-09 17:34:27.7780,0.614,1.082,-0.137,1.19,3.18,-0.57,-0.64,0.04,0.47
2022-02-09 17:34:27.7830,0.67,1.052,-0.153,1.19,3.18,-0.57,-0.72,0.05,0.8
2022-02-09 17:34:27.7790,0.72,1.02,-0.158,1.19,3.18,-0.57,-0.85,0.14,1.18
2022-02-09 17:34:27.7820,0.754,1.023,-0.109,1.19,3.18,-0.57,-1.08,0.27,1.62
2022-02-09 17:34:27.7830,0.755,1.026,-0.009,1.19,3.18,-0.57,-1.42,0.38,2.08
2022-02-09 17:34:27.7840,0.736,1.027,0.059,1.19,3.18,-0.57,-1.71,0.44,2.5
2022-02-09 17:34:27.7840,0.716,1.061,0.016,1.19,3.18,-0.57,-1.8,0.5,2.86
2022-02-09 17:34:27.7850,0.675,1.072,-0.081,1.19,3.18,-0.57,-1.67,0.64,3.09
2022-02-09 17:34:27.7850,0.611,1.091,-0.149,1.19,3.18,-0.57,-1.4,0.9,3.21
2022-02-09 17:34:27.7870,0.546,1.102,-0.136,1.19,3.18,-0.57,-1.15,1.21,3.26
2022-02-09 17:34:27.7890,0.489,1.073,-0.047,1.19,3.18,-0.57,-1.01,1.44,3.25
2022-02-09 17:34:27.7910,0.443,1.058,0.024,1.19,3.18,-0.57,-0.9,1.5,3.18
2022-02-09 17:34:27.7920,0.423,1.066,0.013,1.19,3.18,-0.57,-0.74,1.42,3.1
2022-02-09 17:34:27.7910,0.421,1.093,-0.051,1.19,3.18,-0.57,-0.56,1.26,2.98
2022-02-09 17:34:27.7930,0.383,1.141,-0.089,1.19,3.18,-0.57,-0.41,1.06,2.81
2022-02-09 17:34:27.7920,0.325,1.201,-0.081,1.19,3.18,-0.57,-0.3,0.84,2.6
2022-02-09 17:34:27.7950,0.263,1.267,-0.092,1.19,3.18,-0.57,-0.2,0.65,2.35
2022-02-09 17:34:27.7970,0.218,1.294,-0.137,1.19,3.18,-0.57,-0.09,0.46,2.11
2022-02-09 17:34:27.7970,0.198,1.271,-0.184,1.19,3.18,-0.57,0.05,0.29,1.9
2022-02-09 17:34:27.7970,0.185,1.242,-0.184,1.19,3.18,-0.57,0.21,0.18,1.71
2022-02-09 17:34:27.8000,0.179,1.198,-0.125,1.19,3.18,-0.57,0.38,0.2,1.54
2022-02-09 17:34:27.8010,0.179,1.125,-0.042,1.19,3.18,-0.57,0.54,0.32,1.42
2022-02-09 17:34:27.8000,0.204,1.045,0.023,1.19,3.18,-0.57,0.67,0.51,1.34
2022-02-09 17:34:27.8050,0.258,0.983,0.041,1.19,3.18,-0.57,0.81,0.68,1.3
2022-02-09 17:34:27.8040,0.321,0.92,0.023,1.19,3.18,-0.57,0.93,0.81,1.27
2022-02-09 17:34:27.8050,0.368,0.901,-0.001,1.19,3.18,-0.57,1.01,0.88,1.25
2022-02-09 17:34:27.8090,0.41,0.894,-0.023,-0.34,4.58,-0.61,1.07,0.89,1.22
2022-02-09 17:34:27.8090,0.43,0.888,-0.057,-0.34,4.58,-0.61,1.13,0.88,1.17
2022-02-09 17:34:27.8090,0.423,0.886,-0.097,-0.34,4.58,-0.61,1.21,0.83,1.06
Time,0.401,0.884,-0.111,-0.34,4.58,-0.61,1.28,0.78,0.96
2022-02-09 17:34:27.8130,0.388,0.872,-0.09,-0.34,4.58,-0.61,1.34,0.77,0.86
2022-02-09 17:34:27.8120,0.373,0.852,-0.06,-0.34,4.58,-0.61,1.38,0.83,0.77
2022-02-09 17:34:27.8140,0.363,0.833,-0.043,-0.34,4.58,-0.61,1.42,0.93,0.69
2022-02-09 17:34:27.8160,0.354,0.81,-0.045,-0.34,4.58,-0.61,1.45,1.02,0.61
2022-02-09 17:34:27.8150,0.327,0.792,-0.05,-0.34,4.58,-0.61,1.47,1.1,0.52
2022-02-09 17:34:27.8180,0.304,0.78,-0.053,-0.34,4.58,-0.61,1.51,1.22,0.42
2022-02-09 17:34:27.8190,0.292,0.775,-0.055,-0.34,4.58,-0.61,1.56,1.39,0.32
2022-02-09 17:34:27.8190,0.289,0.755,-0.051,-0.34,4.58,-0.61,1.58,1.55,0.23
2022-02-09 17:34:27.8200,0.284,0.744,-0.05,-0.34,4.58,-0.61,1.58,1.69,0.14
2022-02-09 17:34:27.8200,0.284,0.73,-0.052,-0.34,4.58,-0.61,1.57,1.82,0.07
2022-02-09 17:34:27.8220,0.289,0.71,-0.039,-0.34,4.58,-0.61,1.56,1.95,0.02
2022-02-09 17:34:27.8240,0.29,0.68,-0.009,-0.34,4.58,-0.61,1.53,2.08,-0.01
2022-02-09 17:34:27.8250,0.289,0.67,0.031,-0.34,4.58,-0.61,1.47,2.17,-0.04
2022-02-09 17:34:27.8250,0.29,0.676,0.082,-0.34,4.58,-0.61,1.34,2.24,-0.06
2022-02-09 17:34:27.8270,0.299,0.651,0.131,-0.34,4.58,-0.61,1.19,2.23,-0.07
Time,0.33,0.625,0.124,-0.34,4.58,-0.61,1.06,2.08,-0.07
Time,0.372,0.621,0.063,-0.34,4.58,-0.61,1.02,1.86,-0.05
2022-02-09 17:34:27.8290,0.408,0.628,-0.01,-0.34,4.58,-0.61,1.07,1.68,-0.05
2022-02-09 17:34:27.8300,0.415,0.65,-0.062,-0.34,4.58,-0.61,1.17,1.58,-0.08
2022-02-09 17:34:27.8320,0.414,0.67,-0.09,-0.34,4.58,-0.61,1.29,1.48,-0.14
2022-02-09 17:34:27.8330,0.415,0.672,-0.111,-0.34,4.58,-0.61,1.36,1.33,-0.21
2022-02-09 17:34:27.8320,0.423,0.651,-0.112,-0.34,4.58,-0.61,1.39,1.18,-0.27
2022-02-09 17:34:27.8340,0.444,0.612,-0.091,-0.34,4.58,-0.61,1.36,1.08,-0.3
2022-02-09 17:34:27.8340,0.465,0.575,-0.037,-0.34,4.58,-0.61,1.27,1.01,-0.29
2022-02-09 17:34:27.8370,0.48,0.547,0.038,-0.34,4.58,-0.61,1.15,0.99,-0.24
2022-02-09 17:34:27.8400,0.486,0.535,0.097,-0.34,4.58,-0.61,1.03,1.01,-0.18
2022-02-09 17:34:27.8390,0.469,0.541,0.137,-0.34,4.58,-0.61,0.91,1.01,-0.12
2022-02-09 17:34:27.8400,0.441,0.574,0.136,-0.34,4.58,-0.61,0.82,1.01,-0.1
2022-02-09 17:34:27.8420,0.404,0.635,0.103,-0.34,4.58,-0.61,0.74,1.01,-0.14
2022-02-09 17:34:27.8430,0.363,0.703,0.058,-0.34,4.58,-0.61,0.7,0.98,-0.25
2022-02-09 17:34:27.8460,0.317,0.769,-0.007,-0.34,4.58,-0.61,0.71,0.94,-0.44
2022-02-09 17:34:27.8450,0.278,0.835,-0.083,-0.34,4.58,-0.61,0.78,0.92,-0.67
2022-02-09 17:34:27.8470,0.258,0.896,-0.147,-0.34,4.58,-0.61,0.89,0.92,-0.89
2022-02-09 17:34:27.8470,0.283,0.914,-0.186,-0.34,4.58,-0.61,1.0,0.95,-1.08
2022-02-09 17:34:27.8470,0.3,0.872,-0.16,-0.34,4.58,-0.61,1.07,1.0,-1.22
2022-02-09 17:34:27.8490,0.302,0.814,-0.082,-0.34,4.58,-0.61,1.1,1.05,-1.29
2022-02-09 17:34:27.8520,0.288,0.749,0.028,-0.34,4.58,-0.61,1.12,1.08,-1.29
2022-02-09 17:34:27.8520,0.267,0.696,0.116,-0.34,4.58,-0.61,1.14,1.07,-1.27
2022-02-09 17:34:27.8520,0.278,0.641,0.167,-0.34,4.58,-0.61,1.13,1.1,-1.23
2022-02-09 17:34:27.8530,0.33,0.572,0.178,-0.34,4.58,-0.61,1.15,1.26,-1.15
2022-02-09 17:34:27.8540,0.409,0.501,0.155,-0.34,4.58,-0.61,1.24,1.46,-1.05
2022-02-09 17:34:27.8560,0.485,0.433,0.133,-0.34,4.58,-0.61,1.4,1.57,-0.86
2022-02-09 17:34:27.8580,0.593,0.368,0.065,-0.34,4.58,-0.61,1.57,1.65,-0.58
2022-02-09 17:34:27.8580,0.64,0.301,0.1,-0.34,4.58,-0.61,1.37,1.66,-0.26
2022-02-09 17:34:27.8590,0.621,0.258,0.271,-0.34,4.58,-0.61,0.92,1.59,0.11
2022-02-09 17:34:27.8580,0.613,0.32,0.315,-0.34,4.58,-0.61,0.38,1.49,0.49
2022-02-09 17:34:27.8590,0.629,0.456,0.28,-0.34,4.58,-0.61,0.1,0.79,0.94
2022-02-09 17:34:27.8630,0.715,0.62,0.072,-0.34,4.58,-0.61,0.0,0.45,1.42
2022-02-09 17:34:27.8640,0.734,0.853,-0.199,-0.34,4.58,-0.61,-0.0,0.36,1.79
2022-02-09 17:34:27.8640,0.622,1.129,-0.398,-0.34,4.58,-0.61,0.12,0.07,1.91
2022-02-09 17:34:27.8640,0.584,1.455,-0.533,-0.34,4.58,-0.61,0.24,-0.45,1.7
2022-02-09 17:34:27.8650,0.563,1.775,-0.322,-0.34,4.58,-0.61,-0.08,-0.87,1.13
Time,0.493,1.796,-0.028,-0.34,4.58,-0.61,-0.18,-0.99,0.48
2022-02-09 17:34:27.8690,0.444,1.665,-0.022,-0.34,4.58,-0.61,0.08,-0.77,0.03
2022-02-09 17:34:27.8690,0.482,1.601,-0.128,-0.34,4.58,-0.61,0.08,-0.77,0.03
Time,0.608,1.483,-0.166,-0.34,4.58,-0.61,0.18,0.05,-0.4
2022-02-09 17:34:27.8750,0.811,1.251,-0.168,-0.34,4.58,-0.61,0.33,0.27,-0.29
2022-02-09 17:34:27.8730,1.012,1.091,-0.147,-0.34,4.58,-0.61,0.46,0.37,-0.08
2022-02-09 17:34:27.8700,1.082,1.084,-0.215,-0.34,4.58,-0.61,0.62,0.41,0.11
2022-02-09 17:34:27.8740,1.039,1.148,-0.229,-0.34,4.58,-0.61,0.71,0.45,0.2
2022-02-09 17:34:27.8740,0.911,1.185,-0.196,-0.34,4.58,-0.61,0.64,0.37,0.16
2022-02-09 17:34:27.8770,0.805,1.106,-0.11,-0.34,4.58,-0.61,0.49,0.22,0.14
2022-02-09 17:34:27.8770,0.755,1.026,-0.049,-0.34,4.58,-0.61,0.33,0.13,0.14
2022-02-09 17:34:27.8780,0.715,0.994,-0.018,-0.34,4.58,-0.61,0.19,0.07,0.15
2022-02-09 17:34:27.8790,0.664,0.968,-0.018,-0.34,4.58,-0.61,0.08,0.07,0.13
2022-02-09 17:34:27.8810,0.59,0.904,0.044,-0.34,4.58,-0.61,-0.05,0.15,0.09
2022-02-09 17:34:27.8800,0.511,0.809,0.216,-0.34,4.58,-0.61,-0.32,0.27,0.05
2022-02-09 17:34:27.8910,0.473,0.707,0.333,-0.34,4.58,-0.61,-0.64,0.34,0.05
Time,0.493,0.587,0.397,-0.34,4.58,-0.61,-1.02,0.38,0.13
2022-02-09 17:34:27.8870,0.543,0.461,0.57,-0.34,4.58,-0.61,-1.5,0.16,0.37
2022-02-09 17:34:27.8870,0.68,0.352,0.581,-0.34,4.58,-0.61,-1.78,-0.1,0.76
2022-02-09 17:34:27.8890,0.808,0.245,0.374,-0.34,4.58,-0.61,-1.9,-0.17,1.19
2022-02-09 17:34:27.8900,0.831,0.217,0.26,-0.34,4.58,-0.61,-2.05,-0.17,1.55
2022-02-09 17:34:27.8930,0.702,0.315,0.243,-0.34,4.58,-0.61,-2.18,-0.18,1.76
2022-02-09 17:34:27.8950,0.555,0.419,0.179,-0.34,4.58,-0.61,-2.2,-0.15,1.86
2022-02-09 17:34:27.8960,0.408,0.491,0.089,-0.34,4.58,-0.61,-2.1,-0.08,1.76
2022-02-09 17:34:27.8980,0.219,0.562,0.01,-0.34,4.58,-0.61,-1.92,0.05,1.49
2022-02-09 17:34:27.8980,0.086,0.612,0.011,-0.34,4.58,-0.61,-1.77,0.18,1.25
2022-02-09 17:34:27.9090,0.027,0.637,0.085,-0.34,4.58,-0.61,-1.68,0.23,1.14
2022-02-09 17:34:27.9100,0.043,0.695,0.138,-0.34,4.58,-0.61,-1.63,0.25,1.08
2022-02-09 17:34:27.9040,0.099,0.804,0.136,-0.34,4.58,-0.61,-1.56,0.29,0.98
2022-02-09 17:34:27.9060,0.146,0.955,0.113,-0.34,4.58,-0.61,-1.46,0.34,0.86
2022-02-09 17:34:27.9070,0.227,1.137,0.065,-0.34,4.58,-0.61,-1.29,0.2,0.8
Time,0.449,1.25,-0.132,-0.34,4.58,-0.61,-1.01,-0.35,0.83
Time,0.596,1.339,-0.335,-0.34,4.58,-0.61,-0.8,-1.02,0.62
Time,0.569,1.509,-0.248,-0.34,4.58,-0.61,-0.75,-1.48,0.21
2022-02-09 17:34:27.9120,0.488,1.676,-0.016,-0.34,4.58,-0.61,-0.58,-1.52,-0.33
2022-02-09 17:34:27.9150,0.425,1.658,0.164,-0.34,4.58,-0.61,-0.22,-1.3,-0.88
2022-02-09 17:34:27.9190,0.483,1.433,0.219,-0.34,4.58,-0.61,0.07,-1.11,-1.34
2022-02-09 17:34:27.9160,0.669,1.235,0.215,-0.34,4.58,-0.61,0.21,-1.04,-1.62
2022-02-09 17:34:27.9240,0.87,1.142,0.218,-0.34,4.58,-0.61,0.29,-0.99,-1.71
2022-02-09 17:34:27.9190,1.0,1.026,0.205,-0.34,4.58,-0.61,0.39,-0.92,-1.68
2022-02-09 17:34:27.9200,1.046,0.89,0.178,-0.34,4.58,-0.61,0.5,-0.84,-1.54
2022-02-09 17:34:27.9200,1.014,0.802,0.178,-0.34,4.58,-0.61,0.54,-0.77,-1.34
2022-02-09 17:34:27.9210,0.891,0.772,0.223,-0.34,4.58,-0.61,0.52,-0.61,-1.19
2022-02-09 17:34:27.9230,0.717,0.778,0.293,-0.34,4.58,-0.61,0.54,-0.28,-1.16
Time,0.538,0.793,0.324,-0.34,4.58,-0.61,0.59,0.09,-1.22
2022-02-09 17:34:27.9260,0.408,0.798,0.277,-0.34,4.58,-0.61,0.68,0.34,-1.33
2022-02-09 17:34:27.9260,0.37,0.759,0.173,-0.34,4.58,-0.61,0.84,0.45,-1.46
2022-02-09 17:34:27.9260,0.385,0.702,0.12,-0.34,4.58,-0.61,1.0,0.44,-1.64
2022-02-09 17:34:27.9260,0.404,0.642,0.122,-0.34,4.58,-0.61,1.08,0.26,-1.82
2022-02-09 17:34:27.9290,0.451,0.568,0.162,-0.34,4.58,-0.61,1.05,-0.04,-1.99
2022-02-09 17:34:27.9320,0.507,0.519,0.21,-0.34,4.58,-0.61,0.91,-0.46,-2.14
2022-02-09 17:34:27.9320,0.534,0.488,0.221,-0.34,4.58,-0.61,0.74,-0.89,-2.2
2022-02-09 17:34:27.9320,0.558,0.438,0.201,-0.34,4.58,-0.61,0.64,-1.16,-2.15
2022-02-09 17:34:27.9330,0.56,0.402,0.143,-0.34,4.58,-0.61,0.71,-1.2,-2.02
2022-02-09 17:34:27.9330,0.56,0.363,0.055,-0.34,4.58,-0.61,0.89,-1.03,-1.84
2022-02-09 17:34:27.9360,0.544,0.351,-0.009,-0.34,4.58,-0.61,1.11,-0.73,-1.65
2022-02-09 17:34:27.9380,0.517,0.369,-0.028,-0.34,4.58,-0.61,1.34,-0.31,-1.49
2022-02-09 17:34:27.9390,0.51,0.365,-0.037,-0.34,4.58,-0.61,1.48,0.19,-1.34
2022-02-09 17:34:27.9380,0.491,0.339,-0.034,-0.34,4.58,-0.61,1.54,0.66,-1.24
Time,0.45,0.289,-0.069,-0.34,4.58,-0.61,1.65,1.09,-1.1
2022-02-09 17:34:27.9390,0.473,0.202,-0.117,-0.34,4.58,-0.61,1.78,1.45,-0.82
2022-02-09 17:34:27.9420,0.565,0.107,0.033,-1.08,5.62,0.0,1.28,1.61,-0.36
Time,0.65,0.052,0.475,-1.08,5.62,0.0,0.32,1.4,0.16
2022-02-09 17:34:27.9450,0.712,0.171,0.658,-1.08,5.62,0.0,-0.02,1.0,0.75
2022-02-09 17:34:27.9450,0.86,0.652,-0.125,-1.08,5.62,0.0,0.57,1.15,1.33
2022-02-09 17:34:27.9470,0.824,1.068,-0.43,-1.08,5.62,0.0,0.5,1.27,1.64
2022-02-09 17:34:27.9460,0.573,1.181,0.059,-1.08,5.62,0.0,0.35,1.05,1.72
2022-02-09 17:34:27.9450,0.57,1.632,-0.227,-1.08,5.62,0.0,0.49,0.83,1.41
2022-02-09 17:34:27.9510,0.511,1.864,-0.473,-1.08,5.62,0.0,0.47,0.88,1.0
2022-02-09 17:34:27.9510,0.404,1.757,-0.209,-1.08,5.62,0.0,0.6,1.08,0.75
2022-02-09 17:34:27.9510,0.411,1.68,-0.064,-1.08,5.62,0.0,0.67,1.39,0.59
2022-02-09 17:34:27.9520,0.558,1.577,0.03,-1.08,5.62,0.0,0.28,1.45,0.56
2022-02-09 17:34:27.9520,0.749,1.408,0.269,-1.08,5.62,0.0,-0.27,1.06,0.69
2022-02-09 17:34:27.9520,0.871,1.244,0.289,-1.08,5.62,0.0,-0.5,0.7,0.81
2022-02-09 17:34:27.9570,0.967,1.239,-0.015,-1.08,5.62,0.0,-0.4,0.56,0.85
2022-02-09 17:34:27.9580,0.989,1.313,-0.205,-1.08,5.62,0.0,-0.21,0.44,0.8
2022-02-09 17:34:27.9570,0.861,1.356,-0.315,-1.08,5.62,0.0,0.01,0.26,0.7
2022-02-09 17:34:27.9580,0.744,1.321,-0.338,-1.08,5.62,0.0,0.16,-0.06,0.64
2022-02-09 17:34:27.9590,0.692,1.246,-0.287,-1.08,5.62,0.0,0.19,-0.5,0.57
2022-02-09 17:34:27.9590,0.623,1.195,-0.18,-1.08,5.62,0.0,0.11,-0.81,0.45
2022-02-09 17:34:27.9640,0.54,1.094,-0.025,-1.08,5.62,0.0,-0.04,-0.84,0.31
2022-02-09 17:34:27.9640,0.49,0.947,0.115,-1.08,5.62,0.0,-0.23,-0.74,0.17
2022-02-09 17:34:27.9650,0.48,0.792,0.256,-1.08,5.62,0.0,-0.56,-0.63,0.07
2022-02-09 17:34:27.9640,0.507,0.636,0.438,-1.08,5.62,0.0,-0.99,-0.56,0.08
2022-02-09 17:34:27.9650,0.597,0.496,0.461,-1.08,5.62,0.0,-1.29,-0.54,0.2
2022-02-09 17:34:27.9660,0.69,0.384,0.338,-1.08,5.62,0.0,-1.48,-0.52,0.47
2022-02-09 17:34:27.9690,0.783,0.264,0.307,-1.08,5.62,0.0,-1.73,-0.58,0.88
2022-02-09 17:34:27.9700,0.843,0.147,0.339,-1.08,5.62,0.0,-1.99,-0.68,1.37
2022-02-09 17:34:27.9740,0.838,0.095,0.349,-1.08,5.62,0.0,-2.18,-0.7,1.8
2022-02-09 17:34:27.9710,0.757,0.122,0.345,-1.08,5.62,0.0,-2.24,-0.5,2.07
2022-02-09 17:34:27.9720,0.583,0.226,0.283,-1.08,5.62,0.0,-2.18,-0.16,2.15
2022-02-09 17:34:27.9730,0.4,0.316,0.191,-1.08,5.62,0.0,-2.05,0.22,2.13
2022-02-09 17:34:27.9760,0.26,0.385,0.079,-1.08,5.62,0.0,-1.82,0.55,2.0
2022-02-09 17:34:27.9750,0.152,0.486,0.01,-1.08,5.62,0.0,-1.65,0.7,1.82
2022-02-09 17:34:27.9770,0.085,0.565,0.068,-1.08,5.62,0.0,-1.63,0.65,1.64
2022-02-09 17:34:27.9770,0.051,0.635,0.144,-1.08,5.62,0.0,-1.57,0.5,1.48
2022-02-09 17:34:27.9790,0.072,0.684,0.102,-1.08,5.62,0.0,-1.38,0.33,1.45
2022-02-09 17:34:27.9790,0.204,0.729,0.024,-1.08,5.62,0.0,-1.2,0.21,1.68
2022-02-09 17:34:27.9820,0.328,0.841,-0.016,-1.08,5.62,0.0,-1.07,0.17,1.94
2022-02-09 17:34:27.9810,0.348,1.071,-0.053,-1.08,5.62,0.0,-0.91,0.11,1.98
2022-02-09 17:34:27.9830,0.319,1.324,-0.131,-1.08,5.62,0.0,-0.74,-0.27,1.67
2022-02-09 17:34:27.9820,0.24,1.553,-0.225,-1.08,5.62,0.0,-0.69,-0.76,0.93
2022-02-09 17:34:27.9850,0.209,1.727,-0.207,-1.08,5.62,0.0,-0.69,-1.13,-0.01
2022-02-09 17:34:27.9860,0.23,1.844,-0.141,-1.08,5.62,0.0,-0.55,-1.29,-1.06
2022-02-09 17:34:27.9870,0.343,1.813,-0.078,-1.08,5.62,0.0,-0.18,-1.15,-1.89
2022-02-09 17:34:27.9880,0.604,1.492,0.015,-1.08,5.62,0.0,0.24,-0.83,-2.25
2022-02-09 17:34:27.9890,0.939,1.2,0.097,-1.08,5.62,0.0,0.47,-0.59,-2.3
2022-02-09 17:34:27.9900,1.161,1.052,0.134,-1.08,5.62,0.0,0.56,-0.49,-2.24
2022-02-09 17:34:27.9920,1.258,0.944,0.173,-1.08,5.62,0.0,0.58,-0.43,-2.12
2022-02-09 17:34:27.9920,1.238,0.862,0.213,-1.08,5.62,0.0,0.56,-0.36,-2.05
2022-02-09 17:34:27.9930,1.082,0.81,0.236,-1.08,5.62,0.0,0.59,-0.28,-2.03
2022-02-09 17:34:27.9940,0.907,0.766,0.247,-1.08,5.62,0.0,0.69,-0.13,-2.03
2022-02-09 17:34:27.9960,0.76,0.705,0.242,-1.08,5.62,0.0,0.83,-0.07,-2.03
Time,0.66,0.671,0.186,-1.08,5.62,0.0,1.02,-0.1,-2.01
2022-02-09 17:34:27.9970,0.591,0.641,0.154,-1.08,5.62,0.0,1.21,-0.05,-1.99
2022-02-09 17:34:27.9990,0.528,0.602,0.203,-1.08,5.62,0.0,1.32,0.13,-2.01
2022-02-09 17:34:27.9990,0.475,0.549,0.285,-1.08,5.62,0.0,1.36,0.33,-2.07
2022-02-09 17:34:28.0020,0.453,0.485,0.334,-1.08,5.62,0.0,1.36,0.4,-2.13
2022-02-09 17:34:28.0020,0.427,0.441,0.299,-1.08,5.62,0.0,1.34,0.48,-2.2
2022-02-09 17:34:28.0030,0.424,0.422,0.257,-1.08,5.62,0.0,1.34,0.54,-2.25
2022-02-09 17:34:28.0040,0.415,0.403,0.158,-1.08,5.62,0.0,1.4,0.63,-2.26
2022-02-09 17:34:28.0050,0.434,0.363,0.046,-1.08,5.62,0.0,1.52,0.76,-2.17
2022-02-09 17:34:28.0040,0.469,0.29,-0.028,-1.08,5.62,0.0,1.62,0.84,-1.98
2022-02-09 17:34:28.0070,0.477,0.233,-0.042,-1.08,5.62,0.0,1.71,0.98,-1.76
2022-02-09 17:34:28.0080,0.465,0.235,-0.038,-1.08,5.62,0.0,1.74,1.22,-1.58
2022-02-09 17:34:28.0100,0.448,0.281,-0.054,-1.08,5.62,0.0,1.7,1.44,-1.37
2022-02-09 17:34:28.0100,0.495,0.319,-0.027,-1.08,5.62,0.0,1.15,1.46,-1.02
2022-02-09 17:34:28.0110,0.656,0.246,0.434,-1.08,5.62,0.0,0.02,1.09,-0.5
2022-02-09 17:34:28.0120,0.782,0.265,0.764,-1.08,5.62,0.0,-0.77,0.68,0.01
2022-02-09 17:34:28.0120,0.764,0.64,0.362,-1.08,5.62,0.0,-0.44,0.77,0.32
2022-02-09 17:34:28.0120,0.743,1.179,-0.119,-1.08,5.62,0.0,-0.32,1.03,0.58
2022-02-09 17:34:28.0150,0.599,1.71,-0.134,-1.08,5.62,0.0,-0.13,1.01,0.44
2022-02-09 17:34:28.0180,0.322,1.842,-0.669,-1.08,5.62,0.0,0.08,1.02,0.09
2022-02-09 17:34:28.0190,0.31,1.807,-0.56,-1.08,5.62,0.0,0.12,0.75,-0.16
2022-02-09 17:34:28.0200,0.349,1.773,-0.188,-1.08,5.62,0.0,0.02,0.78,-0.18
2022-02-09 17:34:28.0200,0.442,1.497,-0.146,-1.08,5.62,0.0,0.03,0.99,-0.0
2022-02-09 17:34:28.0200,0.523,1.292,-0.106,-1.08,5.62,0.0,-0.02,1.03,0.31
2022-02-09 17:34:28.0230,0.586,1.249,0.002,-1.08,5.62,0.0,-0.05,0.92,0.71
2022-02-09 17:34:28.0240,0.669,1.319,-0.033,-1.08,5.62,0.0,-0.0,0.66,0.96
2022-02-09 17:34:28.0260,0.715,1.361,-0.158,-1.08,5.62,0.0,0.09,0.47,1.0
2022-02-09 17:34:28.0250,0.776,1.393,-0.32,-1.08,5.62,0.0,0.24,0.26,0.85
2022-02-09 17:34:28.0250,0.766,1.419,-0.353,-1.08,5.62,0.0,0.36,-0.23,0.69
2022-02-09 17:34:28.0250,0.747,1.358,-0.189,-1.08,5.62,0.0,0.36,-0.23,0.69
2022-02-09 17:34:28.0280,0.726,1.245,0.053,-1.08,5.62,0.0,0.05,-0.81,0.56
2022-02-09 17:34:28.0300,0.678,1.105,0.182,-1.08,5.62,0.0,-0.09,-0.69,0.54
2022-02-09 17:34:28.0340,0.653,0.984,0.14,-1.08,5.62,0.0,-0.13,-0.45,0.56
2022-02-09 17:34:28.0310,0.643,0.875,0.1,-1.08,5.62,0.0,-0.17,-0.21,0.6
2022-02-09 17:34:28.0330,0.623,0.769,0.052,-1.08,5.62,0.0,-0.16,-0.13,0.68
2022-02-09 17:34:28.0330,0.616,0.689,-0.021,-1.08,5.62,0.0,-0.14,-0.09,0.77
2022-02-09 17:34:28.0350,0.583,0.614,0.033,-1.08,5.62,0.0,-0.21,-0.03,0.8
2022-02-09 17:34:28.0370,0.53,0.561,0.141,-1.08,5.62,0.0,-0.39,0.04,0.82
2022-02-09 17:34:28.0380,0.521,0.523,0.232,-1.08,5.62,0.0,-0.66,0.12,0.87
Time,0.529,0.46,0.34,-1.08,5.62,0.0,-0.93,0.19,0.98
Time,0.59,0.384,0.333,-1.08,5.62,0.0,-0.93,0.19,0.98
2022-02-09 17:34:28.0410,0.66,0.31,0.289,-1.08,5.62,0.0,-1.31,0.3,1.42
Time,0.708,0.217,0.355,-1.08,5.62,0.0,-1.56,0.3,1.74
2022-02-09 17:34:28.0430,0.739,0.163,0.389,-1.08,5.62,0.0,-1.68,0.36,2.09
2022-02-09 17:34:28.0450,0.694,0.175,0.268,-1.08,5.62,0.0,-1.61,0.51,2.34
2022-02-09 17:34:28.0450,0.577,0.253,0.088,-1.08,5.62,0.0,-1.44,0.69,2.45
2022-02-09 17:34:28.0440,0.421,0.394,-0.037,-1.08,5.62,0.0,-1.26,0.88,2.42
2022-02-09 17:34:28.0470,0.249,0.497,-0.085,-1.08,5.62,0.0,-1.17,1.02,2.27
2022-02-09 17:34:28.0470,0.088,0.569,0.017,-1.08,5.62,0.0,-1.17,0.98,2.06
2022-02-09 17:34:28.0510,-0.025,0.656,0.124,-1.08,5.62,0.0,-1.12,0.85,1.91
2022-02-09 17:34:28.0520,-0.005,0.76,0.108,-1.08,5.62,0.0,-0.98,0.78,1.87
2022-02-09 17:34:28.0520,0.072,0.928,0.071,-1.08,5.62,0.0,-0.86,0.91,1.78
2022-02-09 17:34:28.0530,0.15,1.195,0.068,-1.08,5.62,0.0,-0.7,1.04,1.53
2022-02-09 17:34:28.0530,0.271,1.508,-0.087,-1.08,5.62,0.0,-0.43,0.63,1.17
2022-02-09 17:34:28.0540,0.339,1.679,-0.357,-1.08,5.62,0.0,-0.19,-0.08,0.49
2022-02-09 17:34:28.0570,0.249,1.809,-0.355,-1.08,5.62,0.0,-0.09,-0.44,-0.43
2022-02-09 17:34:28.0580,0.118,1.819,-0.115,-1.08,5.62,0.0,0.17,-0.52,-1.34
2022-02-09 17:34:28.0580,0.24,1.599,0.002,-1.08,5.62,0.0,0.51,-0.55,-1.9
2022-02-09 17:34:28.0580,0.539,1.291,0.104,-1.08,5.62,0.0,0.76,-0.48,-2.08
2022-02-09 17:34:28.0590,0.789,1.079,0.215,-1.08,5.62,0.0,0.88,-0.36,-1.99
2022-02-09 17:34:28.0600,0.917,0.937,0.259,-1.08,5.62,0.0,0.92,-0.31,-1.79
2022-02-09 17:34:28.0630,0.921,0.842,0.237,-1.08,5.62,0.0,0.92,-0.35,-1.62
2022-02-09 17:34:28.0630,0.807,0.847,0.222,-1.08,5.62,0.0,0.89,-0.44,-1.56
2022-02-09 17:34:28.0640,0.658,0.923,0.247,-1.08,5.62,0.0,0.88,-0.39,-1.67
2022-02-09 17:34:28.0660,0.603,0.996,0.329,-1.08,5.62,0.0,0.88,-0.12,-1.81
2022-02-09 17:34:28.0660,0.609,0.966,0.422,-1.08,5.62,0.0,0.92,0.19,-1.85
2022-02-09 17:34:28.0670,0.594,0.926,0.382,-1.08,5.62,0.0,1.06,0.29,-1.81
2022-02-09 17:34:28.0700,0.58,0.897,0.257,-1.08,5.62,0.0,1.28,0.32,-1.81
2022-02-09 17:34:28.0700,0.577,0.853,0.189,-1.08,5.62,0.0,1.47,0.44,-1.88
2022-02-09 17:34:28.0700,0.585,0.8,0.215,-1.08,5.62,0.0,1.47,0.58,-2.02
Time,0.608,0.732,0.29,-1.08,5.62,0.0,1.34,0.57,-2.14
2022-02-09 17:34:28.0740,0.656,0.654,0.302,-1.08,5.62,0.0,1.2,0.43,-2.17
2022-02-09 17:34:28.0740,0.676,0.571,0.305,-1.08,5.62,0.0,1.09,0.48,-2.1
2022-02-09 17:34:28.0760,0.612,0.499,0.324,-1.08,5.62,0.0,1.02,0.78,-1.97
2022-02-09 17:34:28.0760,0.485,0.429,0.32,-1.08,5.62,0.0,1.08,1.28,-1.79
2022-02-09 17:34:28.0790,0.399,0.33,0.24,-1.08,5.62,0.0,1.25,1.56,-1.55
2022-02-09 17:34:28.0810,0.426,0.255,-0.001,-1.08,5.62,0.0,1.49,1.44,-1.24
2022-02-09 17:34:28.0790,0.594,0.163,-0.273,-1.08,5.62,0.0,1.65,1.14,-0.83
2022-02-09 17:34:28.0820,0.711,0.031,-0.366,-1.08,5.62,0.0,1.47,0.77,-0.47
2022-02-09 17:34:28.0810,0.707,0.016,-0.304,-1.08,5.62,0.0,1.23,0.33,-0.08
2022-02-09 17:34:28.0820,0.693,0.101,-0.13,-1.08,5.62,0.0,0.95,0.24,0.37
2022-02-09 17:34:28.0850,0.62,0.21,0.451,-1.08,5.62,0.0,0.26,0.61,0.73
2022-02-09 17:34:28.0870,0.478,0.414,1.036,-1.08,5.62,0.0,-0.4,0.67,0.95
2022-02-09 17:34:28.0870,0.455,0.821,0.376,-1.08,5.62,0.0,0.15,0.45,1.05
2022-02-09 17:34:28.0880,0.61,1.273,-0.595,-1.08,5.62,0.0,0.74,0.38,0.96
2022-02-09 17:34:28.0890,0.663,1.635,-0.46,-1.08,5.62,0.0,0.34,0.21,-0.07
2022-02-09 17:34:28.0890,0.494,1.988,-0.365,-1.08,5.62,0.0,0.34,0.21,-0.07
2022-02-09 17:34:28.0900,0.383,1.682,-0.03,-1.08,5.62,0.0,0.21,0.76,-0.39
2022-02-09 17:34:28.0930,0.628,1.394,0.397,-1.08,5.62,0.0,-0.01,1.17,-0.27
2022-02-09 17:34:28.0940,0.805,1.191,0.173,-1.08,5.62,0.0,-0.13,1.32,-0.02
2022-02-09 17:34:28.0940,0.869,1.05,-0.102,-1.08,5.62,0.0,-0.06,1.61,0.24
Time,0.847,0.985,-0.179,-1.08,5.62,0.0,0.12,1.76,0.43
2022-02-09 17:34:28.1020,0.722,1.048,-0.275,-1.08,5.62,0.0,0.34,1.59,0.37
Time,0.587,1.147,-0.393,-1.08,5.62,0.0,0.6,1.43,0.14
Time,0.487,1.16,-0.49,-1.08,5.62,0.0,0.85,1.34,-0.18
2022-02-09 17:34:28.1000,0.186,-0.708,-0.695,-1.08,5.62,0.0,-0.41,-0.41,-0.11
2022-02-09 17:34:28.1000,0.178,-0.693,-0.708,-1.08,5.62,0.0,-0.52,-0.52,-0.11
2022-02-09 17:34:28.1030,0.137,-0.633,-0.753,-1.08,5.62,0.0,-0.44,-0.56,-0.14
2022-02-09 17:34:28.1040,0.079,-0.63,-0.786,-1.08,5.62,0.0,-0.24,-0.41,-0.13
2022-02-09 17:34:28.1040,0.061,-0.659,-0.739,-1.08,5.62,0.0,-0.11,-0.17,-0.11
2022-02-09 17:34:28.1040,0.064,-0.625,-0.704,-1.08,5.62,0.0,-0.11,-0.17,-0.11
2022-02-09 17:34:28.1050,0.071,-0.619,-0.709,-1.08,5.62,0.0,-0.05,-0.0,-0.17
2022-02-09 17:34:28.1070,0.087,-0.642,-0.704,-1.08,5.62,0.0,-0.09,-0.02,-0.18
2022-02-09 17:34:28.1090,0.108,-0.662,-0.69,-1.08,5.62,0.0,-0.16,-0.06,-0.17
2022-02-09 17:34:28.1100,0.129,-0.676,-0.69,-1.08,5.62,0.0,-0.23,-0.12,-0.14
2022-02-09 17:34:28.1110,0.15,-0.687,-0.697,-1.08,5.62,0.0,-0.31,-0.21,-0.1
2022-02-09 17:34:28.1120,0.162,-0.695,-0.707,-1.08,5.62,0.0,-0.41,-0.32,-0.06
2022-02-09 17:34:28.1120,0.158,-0.695,-0.72,-1.08,5.62,0.0,-0.48,-0.4,-0.01
Time,0.146,-0.687,-0.736,-1.08,5.62,0.0,-0.52,-0.45,0.03
2022-02-09 17:34:28.1150,0.124,-0.673,-0.747,-1.08,5.62,0.0,-0.53,-0.45,0.05
2022-02-09 17:34:28.1180,0.104,-0.658,-0.758,-1.08,5.62,0.0,-0.5,-0.4,0.06
2022-02-09 17:34:28.1170,0.085,-0.649,-0.772,-1.08,5.62,0.0,-0.44,-0.31,0.07
2022-02-09 17:34:28.1180,0.066,-0.642,-0.775,-1.08,5.62,0.0,-0.37,-0.2,0.07
2022-02-09 17:34:28.1190,0.051,-0.632,-0.776,-1.08,5.62,0.0,-0.29,-0.07,0.03
2022-02-09 17:34:28.1210,0.041,-0.621,-0.776,-1.08,5.62,0.0,-0.26,0.01,-0.01
2022-02-09 17:34:28.1230,0.051,-0.626,-0.779,-1.08,5.62,0.0,-0.23,0.06,-0.02
2022-02-09 17:34:28.1250,0.069,-0.642,-0.793,-1.08,5.62,0.0,-0.22,0.03,-0.01
2022-02-09 17:34:28.1250,0.089,-0.65,-0.805,-1.08,5.62,0.0,-0.24,-0.02,0.03
2022-02-09 17:34:28.1250,0.086,-0.639,-0.806,-1.08,5.62,0.0,-0.25,-0.05,0.04
2022-02-09 17:34:28.1240,0.074,-0.64,-0.805,-1.08,5.62,0.0,-0.26,-0.09,0.04
Time,0.067,-0.649,-0.8,-1.08,5.62,0.0,-0.28,-0.1,0.04
2022-02-09 17:34:28.1300,0.072,-0.641,-0.801,-1.08,5.62,0.0,-0.29,-0.11,0.05
2022-02-09 17:34:28.1300,0.071,-0.632,-0.807,-1.08,5.62,0.0,-0.31,-0.13,0.05
2022-02-09 17:34:28.1330,0.063,-0.626,-0.81,-1.08,5.62,0.0,-0.31,-0.14,0.04
2022-02-09 17:34:28.1310,0.057,-0.623,-0.812,-1.08,5.62,0.0,-0.29,-0.13,0.04
2022-02-09 17:34:28.1290,0.05,-0.616,-0.817,-1.08,5.62,0.0,-0.26,-0.1,0.03
2022-02-09 17:34:28.1330,0.042,-0.606,-0.823,-1.08,5.62,0.0,-0.21,-0.05,0.02
2022-02-09 17:34:28.1360,0.033,-0.594,-0.834,-1.08,5.62,0.0,-0.14,0.01,0.01
2022-02-09 17:34:28.1370,0.027,-0.585,-0.839,-1.08,5.62,0.0,-0.09,0.05,-0.01
Time,0.025,-0.587,-0.834,-1.08,5.62,0.0,-0.06,0.08,-0.02
2022-02-09 17:34:28.1390,0.031,-0.589,-0.82,-1.08,5.62,0.0,-0.05,0.1,-0.04
2022-02-09 17:34:28.1380,0.036,-0.589,-0.804,-1.08,5.62,0.0,-0.07,0.1,-0.05
2022-02-09 17:34:28.1380,0.037,-0.592,-0.799,-1.08,5.62,0.0,-0.11,0.07,-0.06
2022-02-09 17:34:28.1420,0.042,-0.591,-0.816,-1.08,5.62,0.0,-0.12,0.03,-0.07
2022-02-09 17:34:28.1420,0.051,-0.585,-0.837,-1.08,5.62,0.0,-0.11,-0.02,-0.08
2022-02-09 17:34:28.1440,0.055,-0.585,-0.847,-1.08,5.62,0.0,-0.1,-0.06,-0.08
2022-02-09 17:34:28.1450,0.063,-0.593,-0.843,-1.08,5.62,0.0,-0.08,-0.08,-0.06
2022-02-09 17:34:28.1430,0.062,-0.599,-0.827,-1.08,5.62,0.0,-0.07,-0.08,-0.05
2022-02-09 17:34:28.1450,0.054,-0.592,-0.809,-1.08,5.62,0.0,-0.07,-0.08,-0.05
2022-02-09 17:34:28.1500,0.052,-0.587,-0.795,-1.08,5.62,0.0,-0.07,-0.06,-0.06
2022-02-09 17:34:28.1500,0.057,-0.593,-0.793,-1.08,5.62,0.0,-0.05,-0.04,-0.05
2022-02-09 17:34:28.1490,0.058,-0.6,-0.798,-1.08,5.62,0.0,-0.03,-0.03,-0.04
2022-02-09 17:34:28.1500,0.056,-0.598,-0.805,-1.08,5.62,0.0,-0.02,-0.02,-0.04
Time,0.055,-0.598,-0.793,-1.08,5.62,0.0,-0.03,-0.02,-0.04
2022-02-09 17:34:28.1520,0.059,-0.602,-0.779,-1.08,5.62,0.0,-0.06,-0.03,-0.04
2022-02-09 17:34:28.1570,0.061,-0.599,-0.778,-1.08,5.62,0.0,-0.08,-0.03,-0.04
2022-02-09 17:34:28.1560,0.064,-0.592,-0.788,-1.08,5.62,0.0,-0.08,-0.03,-0.04
2022-02-09 17:34:28.1560,0.067,-0.585,-0.797,-1.08,5.62,0.0,-0.05,-0.0,-0.04
2022-02-09 17:34:28.1560,0.07,-0.586,-0.8,-1.08,5.62,0.0,-0.01,0.05,-0.03
2022-02-09 17:34:28.1570,0.079,-0.593,-0.8,-1.08,5.62,0.0,0.02,0.07,-0.03
2022-02-09 17:34:28.1560,0.079,-0.594,-0.802,-1.08,5.62,0.0,0.05,0.07,-0.03
2022-02-09 17:34:28.1620,0.07,-0.589,-0.798,-1.08,5.62,0.0,0.05,0.04,-0.05
Time,0.063,-0.588,-0.791,-1.08,5.62,0.0,0.02,-0.01,-0.06
2022-02-09 17:34:28.1620,0.062,-0.594,-0.793,-1.08,5.62,0.0,0.01,-0.05,-0.08
2022-02-09 17:34:28.1630,0.064,-0.596,-0.792,-1.08,5.62,0.0,-0.01,-0.08,-0.09
2022-02-09 17:34:28.1730,0.064,-0.597,-0.782,-1.52,6.08,0.97,-0.02,-0.08,-0.08
Time,0.059,-0.603,-0.777,-1.52,6.08,0.97,-0.01,-0.05,-0.07
Time,0.055,-0.6,-0.776,-1.52,6.08,0.97,0.01,0.03,-0.06
2022-02-09 17:34:28.2030,0.05,-0.589,-0.783,-1.52,6.08,0.97,0.03,0.11,-0.06
2022-02-09 17:34:28.2130,0.045,-0.583,-0.788,-1.52,6.08,0.97,0.04,0.2,-0.06
2022-02-09 17:34:28.2230,0.045,-0.587,-0.795,-1.52,6.08,0.97,0.07,0.3,-0.05
2022-02-09 17:34:28.2330,0.055,-0.584,-0.799,-1.52,6.08,0.97,0.08,0.4,-0.04
2022-02-09 17:34:28.2440,0.06,-0.582,-0.807,-1.52,6.08,0.97,0.11,0.48,-0.04
2022-02-09 17:34:28.2530,0.06,-0.589,-0.824,-1.52,6.08,0.97,0.15,0.51,-0.04
2022-02-09 17:34:28.2630,0.067,-0.582,-0.85,-1.49,6.23,1.88,0.2,0.51,-0.06
2022-02-09 17:34:28.2730,0.078,-0.582,-0.86,-1.72,-3.61,3.95,0.25,0.49,-0.07
2022-02-09 17:34:28.2840,0.089,-0.591,-0.851,4.83,0.57,1.8,0.27,0.46,-0.08
2022-02-09 17:34:28.2940,0.097,-0.597,-0.835,-0.69,1.7,0.5,0.28,0.42,-0.07
2022-02-09 17:34:28.3040,0.108,-0.608,-0.813,-4.6,-4.46,4.37,0.27,0.38,-0.07
2022-02-09 17:34:28.3140,0.114,-0.616,-0.794,-1.06,6.24,-0.2,0.26,0.35,-0.06
2022-02-09 17:34:28.3240,0.114,-0.616,-0.783,5.04,-1.19,2.22,0.24,0.34,-0.06
2022-02-09 17:34:28.3340,0.121,-0.618,-0.773,-1.39,-0.23,5.6,0.24,0.34,-0.04
2022-02-09 17:34:28.3440,0.124,-0.625,-0.767,-0.22,-0.13,1.36,0.25,0.37,-0.02
2022-02-09 17:34:28.3540,0.121,-0.627,-0.755,-2.81,0.96,1.24,0.32,0.46,-0.03
2022-02-09 17:34:28.3650,0.112,-0.621,-0.738,-3.71,-1.21,1.97,0.33,0.52,-0.03
2022-02-09 17:34:28.3750,0.107,-0.62,-0.723,1.06,-0.47,1.87,0.32,0.58,-0.05
2022-02-09 17:34:28.3850,0.111,-0.627,-0.724,1.24,1.97,1.36,0.32,0.57,-0.07
2022-02-09 17:34:28.3940,0.118,-0.628,-0.737,-1.74,4.68,-3.34,0.28,0.51,-0.08
Time,0.133,-0.632,-0.743,-1.05,4.56,-6.3,0.19,0.34,-0.08
2022-02-09 17:34:28.4150,0.15,-0.644,-0.751,-1.56,0.16,-1.88,0.05,0.07,-0.08
2022-02-09 17:34:28.4250,0.172,-0.656,-0.753,-1.18,-9.46,3.98,-0.13,-0.21,-0.07
2022-02-09 17:34:28.4350,0.191,-0.665,-0.749,1.37,5.0,-1.86,-0.31,-0.48,-0.06
2022-02-09 17:34:28.4450,0.197,-0.659,-0.756,0.45,2.75,-2.1,-0.44,-0.68,-0.04
2022-02-09 17:34:28.4550,0.188,-0.651,-0.758,-3.76,-4.5,2.74,-0.44,-0.71,0.02
2022-02-09 17:34:28.4650,0.164,-0.666,-0.749,5.17,-3.73,0.99,-0.38,-0.62,0.08
2022-02-09 17:34:28.4750,0.132,-0.633,-0.751,-1.17,4.57,-2.78,-0.36,-0.53,0.07
